Processed,Time(h),Time(m),Time(s),Time(ms),Delt,AccX,AccY,AccZ,GyroX,GyroY,GyroZ,MagX,MagY,MagZ,PCTimestamp
1,1,1,1,271,3661271,0.1796875,0.99658203125,0.0166015625,-1.5869140625,-0.9765625,-0.48828125,-326.82190386049444,-361.2695032409797,-375.1076303310705,1745594741.3338664
2,1,1,1,286,15,0.18505859375,0.99169921875,0.02099609375,-1.52587890625,-1.0986328125,-0.1220703125,-326.82190386049444,-349.2945132794126,-391.65654141623787,1745594741.3595273
3,1,1,1,301,15,0.19189453125,1.00146484375,0.021484375,-1.64794921875,-1.220703125,-0.1220703125,-314.8469138989273,-347.7976395342167,-384.13430910479815,1745594741.3660116
4,1,1,1,316,15,0.1962890625,1.0068359375,0.01025390625,-1.953125,-0.9765625,-0.42724609375,-316.3437876441232,-364.2632507313715,-391.65654141623787,1745594741.3725107
5,1,1,1,331,15,0.17919921875,0.99658203125,0.02880859375,-1.708984375,-0.79345703125,-0.42724609375,-302.8719239373602,-353.78513451500027,-375.1076303310705,1745594741.3792279
6,1,1,1,346,15,0.185546875,1.0009765625,0.02587890625,-1.8310546875,-1.0986328125,-0.30517578125,-311.85316640853557,-365.7601244765674,-366.08095155734276,1745594741.3911078
7,1,1,1,361,15,0.18603515625,0.998046875,0.0185546875,-2.01416015625,-0.91552734375,-0.6103515625,-313.3500401537314,-371.747619457351,-378.1165232556463,1745594741.3975887
8,1,1,1,376,15,0.181640625,0.9921875,0.0009765625,-1.5869140625,-0.8544921875,-0.42724609375,-322.3312826249068,-347.7976395342167,-379.62096971793426,1745594741.4040015
9,1,1,1,391,15,0.18017578125,0.99462890625,0.02783203125,-1.708984375,-0.91552734375,-0.3662109375,-316.3437876441232,-338.81639706304134,-378.1165232556463,1745594741.4333413
10,1,1,1,406,15,0.171875,0.986328125,0.025390625,-1.64794921875,-0.9765625,0.1220703125,-323.82815637010265,-349.2945132794126,-382.62986264251015,1745594741.444985
11,1,1,1,421,15,0.18603515625,0.99169921875,0.00927734375,-1.64794921875,-0.79345703125,-0.06103515625,-325.32503011529855,-347.7976395342167,-384.13430910479815,1745594741.4567695
12,1,1,1,436,15,0.1845703125,0.98681640625,0.02880859375,-2.0751953125,-0.67138671875,0.1220703125,-310.3562926633397,-356.77888200539206,-382.62986264251015,1745594741.4633658
13,1,1,1,451,15,0.18603515625,0.994140625,0.02099609375,-2.3193359375,-0.67138671875,0.1220703125,-317.8406613893191,-344.80389204382493,-379.62096971793426,1745594741.4751158
14,1,1,1,466,15,0.171875,0.9892578125,0.0107421875,-2.25830078125,-0.732421875,-0.06103515625,-313.3500401537314,-367.2569982217633,-378.1165232556463,1745594741.4921696
15,1,1,1,481,15,0.17236328125,0.9921875,0.02197265625,-2.25830078125,-1.03759765625,0.244140625,-307.3625451729478,-347.7976395342167,-397.6743272653896,1745594741.498659
16,1,1,1,496,15,0.18359375,0.99267578125,0.01708984375,-2.38037109375,-1.3427734375,0.30517578125,-346.28126254804107,-358.27575575058796,-366.08095155734276,1745594741.5051024
17,1,1,1,511,15,0.185546875,0.99853515625,0.017578125,-2.5634765625,-1.3427734375,0.18310546875,-322.3312826249068,-352.28826076980437,-376.6120767933584,1745594741.5117538
18,1,1,1,526,15,0.1875,0.99951171875,0.01025390625,-2.685546875,-1.708984375,0.54931640625,-322.3312826249068,-368.75387196695925,-390.15209495394987,1745594741.5182774
19,1,1,1,541,15,0.1904296875,1.0009765625,0.02685546875,-2.685546875,-1.708984375,0.42724609375,-311.85316640853557,-347.7976395342167,-379.62096971793426,1745594741.529874
20,1,1,1,556,15,0.1845703125,0.99755859375,0.02001953125,-2.74658203125,-1.52587890625,0.30517578125,-334.3062725864739,-356.77888200539206,-364.5765050950548,1745594741.536477
21,1,1,1,571,15,0.18603515625,0.9990234375,0.03173828125,-2.5634765625,-1.40380859375,0.54931640625,-322.3312826249068,-365.7601244765674,-360.063165708191,1745594741.7155418
22,1,1,1,586,15,0.1865234375,0.99951171875,0.03271484375,-2.5634765625,-1.0986328125,0.0,-325.32503011529855,-362.7663769861756,-379.62096971793426,1745594741.7222872
23,1,1,1,601,15,0.17578125,0.994140625,0.02978515625,-2.5634765625,-0.79345703125,0.1220703125,-320.8344088797109,-356.77888200539206,-378.1165232556463,1745594741.7287905
24,1,1,1,616,15,0.17041015625,1.001953125,0.02734375,-2.5634765625,-0.8544921875,0.1220703125,-314.8469138989273,-368.75387196695925,-373.6031838687825,1745594741.7352614
25,1,1,1,631,15,0.19091796875,1.00830078125,0.00830078125,-2.685546875,-0.67138671875,-0.06103515625,-325.32503011529855,-358.27575575058796,-387.14320202937404,1745594741.7417836
26,1,1,1,646,15,0.17626953125,1.00244140625,0.0283203125,-2.74658203125,-0.67138671875,0.1220703125,-320.8344088797109,-349.2945132794126,-378.1165232556463,1745594741.8126893
27,1,1,1,661,15,0.17529296875,0.98974609375,0.03173828125,-2.9296875,-0.91552734375,0.30517578125,-334.3062725864739,-353.78513451500027,-382.62986264251015,1745594741.9068022
28,1,1,1,676,15,0.17919921875,0.9970703125,0.0380859375,-2.9296875,-1.15966796875,0.30517578125,-307.3625451729478,-347.7976395342167,-370.5942909442066,1745594742.0900376
29,1,1,1,691,15,0.171875,0.994140625,0.0263671875,-2.99072265625,-1.3427734375,0.42724609375,-313.3500401537314,-353.78513451500027,-367.58539801963076,1745594742.0965939
30,1,1,1,706,15,0.18505859375,0.99462890625,0.0419921875,-3.173828125,-1.89208984375,0.0,-326.82190386049444,-361.2695032409797,-372.09873740649454,1745594742.109123
31,1,1,1,721,15,0.18408203125,0.998046875,0.0224609375,-2.13623046875,-0.8544921875,-0.3662109375,-332.809398841278,-344.80389204382493,-363.07205863276687,1745594742.462219
32,1,1,1,736,15,0.197265625,0.998046875,0.01220703125,-2.25830078125,-0.732421875,-0.30517578125,-314.8469138989273,-365.7601244765674,-387.14320202937404,1745594742.4687257
33,1,1,1,751,15,0.19140625,0.99951171875,0.02197265625,-2.13623046875,-0.8544921875,0.06103515625,-326.82190386049444,-356.77888200539206,-388.6476484916619,1745594742.4751515
34,1,1,1,766,15,0.185546875,0.9970703125,0.03662109375,-2.0751953125,-0.8544921875,0.0,-340.29376756725753,-355.28200826019616,-379.62096971793426,1745594742.483643
35,1,1,1,781,15,0.21044921875,0.98583984375,0.0419921875,-2.197265625,-1.220703125,-0.1220703125,-314.8469138989273,-344.80389204382493,-370.5942909442066,1745594742.4905534
36,1,1,1,796,15,0.2021484375,1.0029296875,0.009765625,-2.13623046875,-0.9765625,-0.67138671875,-323.82815637010265,-338.81639706304134,-385.6387555670861,1745594742.4969947
37,1,1,1,811,15,0.1767578125,0.98876953125,0.03125,-1.953125,-0.67138671875,-0.3662109375,-331.31252509608214,-367.2569982217633,-378.1165232556463,1745594742.5041726
38,1,1,1,826,15,0.18017578125,0.9892578125,0.0322265625,-1.8310546875,-0.79345703125,0.0,-314.8469138989273,-340.3132708082373,-366.08095155734276,1745594742.515806
39,1,1,1,841,15,0.18017578125,0.99658203125,0.02294921875,-2.197265625,-0.8544921875,0.0,-322.3312826249068,-355.28200826019616,-370.5942909442066,1745594742.522915
40,1,1,1,856,15,0.18310546875,0.99853515625,0.02783203125,-2.0751953125,-0.8544921875,-0.30517578125,-322.3312826249068,-352.28826076980437,-363.07205863276687,1745594742.5293937
41,1,1,1,871,15,0.1826171875,0.99755859375,0.0380859375,-2.0751953125,-1.03759765625,-0.54931640625,-307.3625451729478,-352.28826076980437,-387.14320202937404,1745594742.538096
42,1,1,1,886,15,0.1826171875,0.99609375,0.0546875,-1.708984375,-0.9765625,-0.67138671875,-314.8469138989273,-358.27575575058796,-379.62096971793426,1745594742.5718002
43,1,1,1,901,15,0.18359375,0.99658203125,0.02587890625,-1.52587890625,-1.0986328125,-0.8544921875,-314.8469138989273,-347.7976395342167,-366.08095155734276,1745594742.5787082
44,1,1,1,916,15,0.18896484375,0.99462890625,0.0322265625,-1.28173828125,-1.0986328125,-1.15966796875,-313.3500401537314,-356.77888200539206,-364.5765050950548,1745594742.5863485
45,1,1,1,931,15,0.16943359375,0.99169921875,0.0283203125,-1.220703125,-0.79345703125,-1.5869140625,-305.8656714277519,-353.78513451500027,-378.1165232556463,1745594742.592875
46,1,1,1,946,15,0.17919921875,1.0,0.03857421875,-1.28173828125,-0.6103515625,-1.8310546875,-317.8406613893191,-362.7663769861756,-384.13430910479815,1745594742.5994596
47,1,1,1,961,15,0.1787109375,0.99267578125,0.03271484375,-1.28173828125,-0.79345703125,-2.38037109375,-332.809398841278,-340.3132708082373,-370.5942909442066,1745594742.6068785
48,1,1,1,976,15,0.2080078125,0.99755859375,0.029296875,-1.0986328125,-1.0986328125,-2.5634765625,-313.3500401537314,-346.30076578902083,-372.09873740649454,1745594742.6190584
49,1,1,1,991,15,0.1884765625,1.00830078125,0.02294921875,-0.54931640625,-0.6103515625,-3.0517578125,-337.30002007686574,-356.77888200539206,-372.09873740649454,1745594742.6268523
50,1,1,2,6,15,0.17138671875,0.99560546875,0.0341796875,-0.3662109375,-0.8544921875,-3.2958984375,-326.82190386049444,-343.30701829862903,-385.6387555670861,1745594742.6348171
51,1,1,2,21,15,0.17138671875,0.998046875,0.0302734375,0.0,-0.42724609375,-3.23486328125,-341.7906413124534,-346.30076578902083,-375.1076303310705,1745594742.706548
52,1,1,2,36,15,0.1630859375,0.9853515625,0.0498046875,0.18310546875,-0.732421875,-2.8076171875,-320.8344088797109,-353.78513451500027,-385.6387555670861,1745594742.7129846
53,1,1,2,51,15,0.16796875,0.9970703125,0.04345703125,-0.06103515625,-0.30517578125,-2.3193359375,-316.3437876441232,-338.81639706304134,-382.62986264251015,1745594742.7194479
54,1,1,2,66,15,0.17138671875,0.98681640625,0.05224609375,0.732421875,-0.244140625,-1.708984375,-322.3312826249068,-355.28200826019616,-384.13430910479815,1745594742.7268815
55,1,1,2,81,15,0.17724609375,0.9970703125,0.0341796875,1.46484375,-0.54931640625,-1.28173828125,-314.8469138989273,-358.27575575058796,-366.08095155734276,1745594742.7333536
56,1,1,2,96,15,0.1923828125,0.99609375,0.0234375,1.5869140625,-0.06103515625,-1.46484375,-332.809398841278,-347.7976395342167,-394.66543434081376,1745594742.7815177
57,1,1,2,111,15,0.18798828125,0.9931640625,0.0400390625,0.91552734375,-0.1220703125,-2.0751953125,-325.32503011529855,-340.3132708082373,-390.15209495394987,1745594742.7890625
58,1,1,2,126,15,0.18994140625,0.9912109375,0.02001953125,1.3427734375,0.0,-2.5634765625,-341.7906413124534,-349.2945132794126,-378.1165232556463,1745594742.7958896
59,1,1,2,141,15,0.1728515625,1.00341796875,0.0361328125,0.8544921875,0.244140625,-2.197265625,-320.8344088797109,-356.77888200539206,-372.09873740649454,1745594742.8022916
60,1,1,2,156,15,0.1708984375,0.99462890625,0.0400390625,1.953125,-0.79345703125,-1.64794921875,-323.82815637010265,-349.2945132794126,-375.1076303310705,1745594742.8089795
61,1,1,2,171,15,0.1611328125,0.998046875,0.0185546875,2.0751953125,0.0,-1.40380859375,-329.81565135088624,-337.31952331784544,-373.6031838687825,1745594742.8154523
62,1,1,2,186,15,0.1865234375,0.9990234375,0.02978515625,1.708984375,0.0,-1.953125,-331.31252509608214,-374.7413669477428,-385.6387555670861,1745594742.8218489
63,1,1,2,201,15,0.17529296875,0.9990234375,0.01220703125,1.28173828125,0.9765625,-2.3193359375,-331.31252509608214,-361.2695032409797,-378.1165232556463,1745594742.828553
64,1,1,2,216,15,0.15771484375,1.00146484375,0.02197265625,1.220703125,0.9765625,-2.74658203125,-302.8719239373602,-338.81639706304134,-378.1165232556463,1745594742.8349967
65,1,1,2,231,15,0.15673828125,1.0,0.0263671875,0.732421875,1.15966796875,-2.62451171875,-317.8406613893191,-340.3132708082373,-379.62096971793426,1745594742.842338
66,1,1,2,246,15,0.1611328125,1.00439453125,0.01171875,0.3662109375,1.03759765625,-2.685546875,-320.8344088797109,-346.30076578902083,-388.6476484916619,1745594742.849533
67,1,1,2,261,15,0.162109375,1.005859375,0.00537109375,-0.42724609375,0.9765625,-2.5634765625,-317.8406613893191,-340.3132708082373,-370.5942909442066,1745594742.8563387
68,1,1,2,276,15,0.18359375,0.99755859375,0.0126953125,-1.03759765625,0.18310546875,-2.86865234375,-332.809398841278,-352.28826076980437,-366.08095155734276,1745594742.8628824
69,1,1,2,291,15,0.17333984375,1.0,0.02734375,-0.6103515625,-0.3662109375,-3.11279296875,-325.32503011529855,-347.7976395342167,-370.5942909442066,1745594742.9025264
70,1,1,2,306,15,0.16796875,0.9912109375,0.0263671875,-0.30517578125,-1.64794921875,-2.685546875,-343.2875150576493,-352.28826076980437,-366.08095155734276,1745594742.909848
71,1,1,2,321,15,0.14697265625,0.986328125,0.02099609375,-0.244140625,-2.8076171875,-2.25830078125,-329.81565135088624,-358.27575575058796,-384.13430910479815,1745594742.9163318
72,1,1,2,336,15,0.14794921875,0.99658203125,0.0205078125,-0.1220703125,-2.685546875,-1.0986328125,-346.28126254804107,-358.27575575058796,-373.6031838687825,1745594742.9227576
73,1,1,2,351,15,0.15673828125,0.98876953125,0.01220703125,-0.6103515625,-2.13623046875,-0.42724609375,-320.8344088797109,-343.30701829862903,-375.1076303310705,1745594742.9300435
74,1,1,2,366,15,0.177734375,0.9931640625,0.017578125,-0.9765625,-1.0986328125,0.0,-334.3062725864739,-364.2632507313715,-375.1076303310705,1745594742.9377778
75,1,1,2,381,15,0.15576171875,1.0107421875,0.0322265625,-0.18310546875,-0.06103515625,0.3662109375,-331.31252509608214,-356.77888200539206,-372.09873740649454,1745594742.9444466
76,1,1,2,396,15,0.14697265625,1.0087890625,0.02685546875,0.42724609375,-0.30517578125,1.15966796875,-325.32503011529855,-347.7976395342167,-394.66543434081376,1745594742.9672747
77,1,1,2,411,15,0.17626953125,1.0029296875,0.02197265625,0.42724609375,-0.06103515625,2.13623046875,-320.8344088797109,-361.2695032409797,-372.09873740649454,1745594742.9744587
78,1,1,2,426,15,0.1728515625,1.00537109375,-0.02197265625,-0.3662109375,0.1220703125,1.77001953125,-340.29376756725753,-337.31952331784544,-384.13430910479815,1745594743.3907566
79,1,1,2,441,15,0.19189453125,1.0107421875,-0.00927734375,-2.38037109375,-0.54931640625,1.52587890625,-329.81565135088624,-358.27575575058796,-384.13430910479815,1745594743.398926
80,1,1,2,456,15,0.2001953125,1.01953125,-0.03125,-5.31005859375,-0.9765625,0.0,-325.32503011529855,-352.28826076980437,-370.5942909442066,1745594743.4064417
81,1,1,2,471,15,0.19970703125,1.00634765625,-0.00927734375,-7.8125,-2.86865234375,-2.5634765625,-331.31252509608214,-371.747619457351,-382.62986264251015,1745594743.4129572
82,1,1,2,486,15,0.19091796875,0.99462890625,0.02392578125,-9.033203125,-5.18798828125,-5.4931640625,-334.3062725864739,-346.30076578902083,-382.62986264251015,1745594743.4968107
83,1,1,2,501,15,0.19091796875,0.9853515625,0.00830078125,-12.39013671875,-7.26318359375,-8.4228515625,-320.8344088797109,-353.78513451500027,-382.62986264251015,1745594743.53698
84,1,1,2,516,15,0.1796875,0.99560546875,0.01318359375,-15.80810546875,-8.60595703125,-11.5966796875,-325.32503011529855,-337.31952331784544,-373.6031838687825,1745594743.5434146
85,1,1,2,531,15,0.1865234375,1.0166015625,0.01025390625,-17.76123046875,-9.033203125,-14.16015625,-316.3437876441232,-343.30701829862903,-396.1698808031017,1745594743.5516367
86,1,1,2,546,15,0.18115234375,1.01123046875,0.025390625,-18.61572265625,-9.46044921875,-17.08984375,-316.3437876441232,-353.78513451500027,-378.1165232556463,1745594743.5585167
87,1,1,2,561,15,0.1484375,1.017578125,0.02587890625,-20.5078125,-10.19287109375,-19.53125,-323.82815637010265,-349.2945132794126,-372.09873740649454,1745594743.576291
88,1,1,2,576,15,0.16015625,1.021484375,-0.03466796875,-24.47509765625,-12.0849609375,-20.99609375,-325.32503011529855,-368.75387196695925,-360.063165708191,1745594743.5827215
89,1,1,2,591,15,0.17919921875,1.00439453125,-0.00634765625,-28.1982421875,-13.916015625,-24.4140625,-344.78438880284517,-346.30076578902083,-378.1165232556463,1745594743.5896401
90,1,1,2,606,15,0.17626953125,1.0009765625,0.03857421875,-30.45654296875,-14.7705078125,-28.74755859375,-340.29376756725753,-337.31952331784544,-384.13430910479815,1745594743.5973053
91,1,1,2,621,15,0.21435546875,1.00732421875,0.0439453125,-31.92138671875,-19.53125,-34.5458984375,-352.2687575288246,-349.2945132794126,-385.6387555670861,1745594743.6037364
92,1,1,2,636,15,0.22705078125,1.01806640625,0.09130859375,-33.3251953125,-21.97265625,-41.32080078125,-344.78438880284517,-335.82264957264954,-382.62986264251015,1745594743.6110442
93,1,1,2,651,15,0.3037109375,1.05078125,0.072265625,-32.470703125,-20.08056640625,-51.3916015625,-365.7406212355877,-343.30701829862903,-375.1076303310705,1745594743.6544194
94,1,1,2,666,15,0.2998046875,1.0595703125,0.076171875,-34.11865234375,-10.92529296875,-62.5,-373.22498996156713,-331.3320283370619,-364.5765050950548,1745594743.6609302
95,1,1,2,681,15,0.3671875,1.00244140625,0.11865234375,-35.21728515625,-5.67626953125,-76.23291015625,-365.7406212355877,-317.86016463029887,-378.1165232556463,1745594743.6681921
96,1,1,2,696,15,0.2373046875,1.072265625,0.0849609375,-35.46142578125,-5.18798828125,-88.68408203125,-374.72186370676303,-316.36329088510297,-363.07205863276687,1745594743.680504
97,1,1,2,711,15,0.287109375,1.10498046875,0.0888671875,-36.43798828125,-6.34765625,-104.8583984375,-371.72811621637123,-301.394553433144,-366.08095155734276,1745594743.6925473
98,1,1,2,726,15,0.2431640625,1.22216796875,0.03173828125,-33.87451171875,-7.87353515625,-117.67578125,-380.70935868754657,-299.89767968794814,-364.5765050950548,1745594743.7006383
99,1,1,2,741,15,0.14501953125,1.38720703125,0.005859375,-27.64892578125,-13.5498046875,-129.33349609375,-385.19997992313426,-301.394553433144,-366.08095155734276,1745594743.707119
100,1,1,2,756,15,0.3857421875,1.59765625,0.10302734375,-27.03857421875,-27.34375,-124.45068359375,-409.14995984626853,-299.89767968794814,-361.5676121704789,1745594745.1744423
101,1,1,2,771,15,0.16748046875,1.505859375,0.3134765625,-28.38134765625,-23.193359375,-133.72802734375,-404.6593386106809,-274.450826019618,-361.5676121704789,1745594745.3236818
102,1,1,2,786,15,0.2275390625,1.5615234375,0.2626953125,-22.0947265625,-31.25,-137.451171875,-430.10619227901105,-263.9727098032467,-351.0364869344633,1745594747.545982
103,1,1,2,801,15,0.3310546875,1.40673828125,0.13671875,-21.6064453125,-27.587890625,-137.14599609375,-428.60931853381516,-247.5070986060919,-373.6031838687825,1745594747.55242
104,1,1,2,816,15,0.29638671875,1.28759765625,-0.0830078125,-0.8544921875,5.126953125,-133.11767578125,-448.0686772213618,-225.0539924281535,-364.5765050950548,1745594748.2911422
105,1,1,2,831,15,-0.1640625,1.2548828125,-0.03125,7.99560546875,10.25390625,-142.76123046875,-443.5780559857741,-202.6008862502151,-351.0364869344633,1745594748.2976453
106,1,1,2,846,15,-0.1025390625,1.1240234375,-0.22998046875,10.7421875,-17.63916015625,-146.728515625,-451.0624247117536,-207.0915074858028,-340.50536169844764,1745594748.3058138
107,1,1,2,861,15,0.1669921875,1.07177734375,-0.15234375,11.41357421875,-28.3203125,-122.6806640625,-451.0624247117536,-181.6446538174726,-364.5765050950548,1745594748.3122623
108,1,1,2,876,15,-0.0859375,0.966796875,-0.12939453125,18.4326171875,-21.05712890625,-99.2431640625,-446.5718034761659,-165.1790426203178,-345.01870108531153,1745594748.3187222
109,1,1,2,891,15,0.2294921875,0.6591796875,-0.04931640625,26.67236328125,-35.400390625,-70.73974609375,-451.0624247117536,-163.68216887512187,-337.4964687738718,1745594748.3260164
110,1,1,2,906,15,0.5166015625,0.51953125,0.07763671875,31.92138671875,-34.48486328125,-35.0341796875,-449.5655509665577,-169.66966385590547,-342.0098081607356,1745594748.3324497
111,1,1,2,921,15,0.33984375,0.27880859375,0.08154296875,35.888671875,-28.50341796875,-13.12255859375,-430.10619227901105,-153.20405265875064,-340.50536169844764,1745594748.3388994
112,1,1,2,936,15,0.509765625,0.31103515625,0.13232421875,40.46630859375,-19.6533203125,17.333984375,-446.5718034761659,-147.21655767796707,-366.08095155734276,1745594748.3460498
113,1,1,2,951,15,0.4541015625,0.3369140625,0.10888671875,47.05810546875,-10.68115234375,41.68701171875,-458.546793437733,-166.6759163655137,-351.0364869344633,1745594748.3537383
114,1,1,2,966,15,0.36474609375,0.453125,0.1416015625,49.6826171875,-2.62451171875,70.3125,-433.09993976940285,-153.20405265875064,-348.0275940098874,1745594748.3602421
115,1,1,2,981,15,0.23779296875,0.5546875,0.1552734375,42.6025390625,-2.0751953125,98.32763671875,-431.60306602420695,-169.66966385590547,-352.54093339675126,1745594748.3672156
116,1,1,2,996,15,0.2490234375,0.6650390625,0.14990234375,37.17041015625,-1.77001953125,126.77001953125,-422.6218235530316,-166.6759163655137,-348.0275940098874,1745594748.3794158
117,1,1,3,11,15,0.2255859375,0.67626953125,0.162109375,29.1748046875,0.3662109375,151.18408203125,-413.6405810818562,-187.63214879825617,-349.5320404721753,1745594748.387292
118,1,1,3,26,15,0.22412109375,0.6943359375,0.1376953125,29.541015625,8.48388671875,175.4150390625,-410.64683359146443,-180.1477800722767,-355.54982632132715,1745594748.3937747
119,1,1,3,41,15,0.2080078125,0.73974609375,0.11474609375,32.40966796875,19.53125,194.27490234375,-398.67184362989735,-189.12902254345207,-354.0453798590392,1745594748.4002633
120,1,1,3,56,15,0.162109375,0.84814453125,0.09619140625,35.64453125,30.1513671875,208.80126953125,-382.20623243274247,-222.06024493776172,-355.54982632132715,1745594748.4081523
121,1,1,3,71,15,0.099609375,0.9794921875,0.1416015625,37.9638671875,39.48974609375,217.7734375,-382.20623243274247,-247.5070986060919,-366.08095155734276,1745594748.414582
122,1,1,3,86,15,0.0205078125,1.06982421875,0.15185546875,39.6728515625,49.31640625,219.8486328125,-379.2124849423507,-257.98521482246315,-360.063165708191,1745594748.4210215
123,1,1,3,101,15,-0.046875,1.23974609375,0.19970703125,41.93115234375,57.2509765625,218.56689453125,-343.2875150576493,-275.9476997648139,-345.01870108531153,1745594748.427555
124,1,1,3,116,15,-0.77685546875,2.5634765625,-0.26220703125,52.490234375,81.298828125,236.38916015625,-331.31252509608214,-292.4133109619687,-340.50536169844764,1745594748.4340956
125,1,1,3,131,15,-0.34619140625,1.84521484375,0.0908203125,61.279296875,94.05517578125,245.7275390625,-292.39380772098895,-325.3445333562783,-340.50536169844764,1745594748.441084
126,1,1,3,146,15,-2.68017578125,3.3798828125,0.60546875,-34.423828125,2.0751953125,98.9990234375,-293.8906814661848,-326.8414071014742,-342.0098081607356,1745594748.4482386
127,1,1,3,161,15,-8.51416015625,1.75146484375,-0.20654296875,-90.14892578125,-127.197265625,-125.0,-283.4125652498136,-355.28200826019616,-339.00091523615976,1745594748.4560544
128,1,1,3,176,15,1.4892578125,-0.02392578125,0.6240234375,15.56396484375,-51.26953125,-133.23974609375,-287.90318648540125,-353.78513451500027,-351.0364869344633,1745594748.4624937
129,1,1,3,191,15,0.33984375,0.76220703125,0.38916015625,-61.34033203125,-69.9462890625,-52.24609375,-293.8906814661848,-316.36329088510297,-349.5320404721753,1745594748.4696994
130,1,1,3,206,15,0.6474609375,1.4404296875,-0.38427734375,-25.87890625,-62.43896484375,-21.484375,-325.32503011529855,-311.87266964951533,-352.54093339675126,1745594748.4958522
131,1,1,3,221,15,0.2197265625,1.06982421875,0.41845703125,-21.484375,-9.1552734375,-65.5517578125,-325.32503011529855,-301.394553433144,-339.00091523615976,1745594748.505868
132,1,1,3,236,15,0.39599609375,0.98095703125,0.130859375,2.9296875,-16.4794921875,-59.326171875,-314.8469138989273,-298.40080594275224,-345.01870108531153,1745594748.5131056
133,1,1,3,251,15,0.16552734375,1.0224609375,-0.02099609375,14.404296875,3.173828125,-68.359375,-320.8344088797109,-302.8914271783399,-340.50536169844764,1745594748.5203862
134,1,1,3,266,15,-0.19140625,0.97021484375,-0.11474609375,8.60595703125,7.080078125,-53.77197265625,-320.8344088797109,-292.4133109619687,-351.0364869344633,1745594748.5333922
135,1,1,3,281,15,-0.0634765625,1.052734375,-0.064453125,0.30517578125,-3.41796875,-45.59326171875,-316.3437876441232,-271.4570785292262,-351.0364869344633,1745594748.5401292
136,1,1,3,296,15,-0.01220703125,0.99169921875,0.08837890625,0.6103515625,-7.38525390625,-36.7431640625,-322.3312826249068,-287.922689726381,-355.54982632132715,1745594748.546686
137,1,1,3,311,15,-0.005859375,1.05322265625,-0.01220703125,2.01416015625,-6.7138671875,-32.28759765625,-331.31252509608214,-271.4570785292262,-358.55871924590303,1745594748.5540962
138,1,1,3,326,15,0.08349609375,1.0458984375,0.052734375,6.9580078125,-12.39013671875,-29.296875,-335.80314633166984,-280.4383210004015,-355.54982632132715,1745594748.5606413
139,1,1,3,341,15,-0.0009765625,0.982421875,0.0830078125,10.92529296875,-6.8359375,-30.94482421875,-325.32503011529855,-269.9602047840303,-349.5320404721753,1745594748.567854
140,1,1,3,356,15,-0.00244140625,1.08447265625,0.0283203125,9.521484375,-6.2255859375,-30.94482421875,-340.29376756725753,-283.43206849079326,-363.07205863276687,1745594748.574286
141,1,1,3,371,15,-0.005859375,1.0654296875,-0.01513671875,9.1552734375,-4.08935546875,-28.4423828125,-335.80314633166984,-275.9476997648139,-355.54982632132715,1745594748.5807736
142,1,1,3,386,15,0.03662109375,1.07666015625,-0.07666015625,6.53076171875,-4.7607421875,-27.83203125,-349.27501003843287,-274.450826019618,-361.5676121704789,1745594748.5881133
143,1,1,3,401,15,-0.0068359375,1.0576171875,-0.06201171875,4.57763671875,-8.97216796875,-27.587890625,-341.7906413124534,-295.4070584523605,-382.62986264251015,1745594748.6070087
144,1,1,3,416,15,-0.06396484375,1.01318359375,0.03271484375,5.0048828125,-10.55908203125,-23.92578125,-356.7593787644123,-262.47583605805085,-363.07205863276687,1745594749.3634942
145,1,1,3,431,15,-0.05859375,1.02392578125,0.0107421875,3.7841796875,-11.23046875,-19.10400390625,-350.77188378362877,-269.9602047840303,-355.54982632132715,1745594749.5180376
146,1,1,3,446,15,0.0244140625,1.05712890625,-0.02685546875,0.6103515625,-11.90185546875,-16.7236328125,-349.27501003843287,-263.9727098032467,-372.09873740649454,1745594749.5244727
147,1,1,3,461,15,0.00830078125,1.0224609375,0.03076171875,-0.18310546875,-12.3291015625,-20.08056640625,-349.27501003843287,-278.9414472552056,-364.5765050950548,1745594749.5310276
148,1,1,3,476,15,0.0712890625,1.0654296875,0.00341796875,1.3427734375,-16.05224609375,-27.83203125,-355.2625050192164,-260.97896231285495,-375.1076303310705,1745594749.5924454
149,1,1,3,491,15,0.126953125,1.0810546875,-0.07177734375,1.8310546875,-21.3623046875,-38.75732421875,-349.27501003843287,-266.9664572936385,-361.5676121704789,1745594749.5990143
150,1,1,3,506,15,0.21728515625,1.20068359375,0.03466796875,-2.74658203125,-23.681640625,-48.33984375,-355.2625050192164,-271.4570785292262,-372.09873740649454,1745594749.6054857
151,1,1,3,521,15,0.2548828125,1.1552734375,0.05029296875,-1.89208984375,-24.658203125,-67.93212890625,-352.2687575288246,-253.49459358687545,-375.1076303310705,1745594749.6118882
152,1,1,3,536,15,0.31884765625,1.18994140625,0.04150390625,-1.46484375,-27.03857421875,-91.00341796875,-359.7531262548041,-260.97896231285495,-375.1076303310705,1745594749.6202922
153,1,1,3,551,15,0.3486328125,1.35791015625,0.16259765625,2.44140625,-25.390625,-117.37060546875,-356.7593787644123,-237.02898238972065,-373.6031838687825,1745594749.626774
154,1,1,3,566,15,0.7001953125,1.8515625,0.08154296875,-3.2958984375,-19.1650390625,-144.8974609375,-362.74687374519584,-249.00397235128779,-385.6387555670861,1745594749.6331787
155,1,1,3,581,15,0.6337890625,1.82275390625,0.18603515625,11.41357421875,-17.822265625,-177.67333984375,-361.24999999999994,-234.03523489932883,-366.08095155734276,1745594749.6405945
156,1,1,3,596,15,0.9267578125,2.5185546875,0.322265625,24.96337890625,-19.287109375,-193.54248046875,-368.7343687259795,-219.06649744736993,-379.62096971793426,1745594749.6471772
157,1,1,3,611,15,0.931640625,1.94384765625,0.37841796875,49.62158203125,12.8173828125,-208.0078125,-364.2437474903918,-211.58212872139046,-384.13430910479815,1745594749.6535788
158,1,1,3,626,15,0.24072265625,1.26171875,0.2958984375,49.4384765625,36.0107421875,-196.4111328125,-362.74687374519584,-181.6446538174726,-385.6387555670861,1745594749.6612015
159,1,1,3,641,15,-0.25537109375,1.2451171875,0.083984375,24.90234375,60.85205078125,-188.04931640625,-341.7906413124534,-189.12902254345207,-382.62986264251015,1745594749.6690536
160,1,1,3,656,15,-0.4931640625,1.42724609375,-0.50244140625,-9.70458984375,-2.197265625,-176.6357421875,-361.24999999999994,-198.11026501462743,-373.6031838687825,1745594749.7700703
161,1,1,3,671,15,-0.16357421875,0.90869140625,-0.4296875,-27.587890625,-35.888671875,-130.2490234375,-359.7531262548041,-174.16028509149314,-385.6387555670861,1745594749.7972457
162,1,1,3,686,15,1.80029296875,0.50537109375,-0.0986328125,6.9580078125,-10.92529296875,-25.146484375,-374.72186370676303,-162.18529512992598,-387.14320202937404,1745594749.8051713
163,1,1,3,701,15,1.447265625,-0.10791015625,0.001953125,-24.35302734375,-21.97265625,26.30615234375,-382.20623243274247,-154.70092640394654,-384.13430910479815,1745594749.811646
164,1,1,3,716,15,1.67236328125,0.0244140625,0.3642578125,-38.87939453125,-21.17919921875,92.7734375,-368.7343687259795,-162.18529512992598,-387.14320202937404,1745594749.8181064
165,1,1,3,731,15,1.23046875,-0.3857421875,0.451171875,-46.93603515625,-9.46044921875,147.94921875,-377.71561119715483,-181.6446538174726,-367.58539801963076,1745594749.8368707
166,1,1,3,746,15,0.974609375,-0.138671875,0.310546875,-47.119140625,4.2724609375,192.0166015625,-364.2437474903918,-190.62589628864794,-373.6031838687825,1745594749.8444662
167,1,1,3,761,15,1.08447265625,0.1181640625,0.2666015625,-49.9267578125,19.22607421875,244.873046875,-356.7593787644123,-180.1477800722767,-373.6031838687825,1745594749.850959
168,1,1,3,776,15,0.81787109375,0.431640625,0.15771484375,-42.05322265625,76.11083984375,290.95458984375,-364.2437474903918,-198.11026501462743,-366.08095155734276,1745594749.857603
169,1,1,3,791,15,0.2998046875,0.7587890625,-0.02392578125,-45.0439453125,122.61962890625,320.6787109375,-350.77188378362877,-219.06649744736993,-352.54093339675126,1745594749.8648894
170,1,1,3,806,15,0.13720703125,0.98388671875,-0.162109375,-53.77197265625,124.32861328125,347.96142578125,-332.809398841278,-240.02272988011242,-352.54093339675126,1745594749.8727584
171,1,1,3,821,15,-0.150390625,1.40869140625,-0.29736328125,-52.978515625,114.3798828125,365.41748046875,-314.8469138989273,-283.43206849079326,-328.46979000014414,1745594749.8832295
172,1,1,3,836,15,-0.3984375,2.0478515625,-0.27783203125,-28.076171875,105.46875,378.23486328125,-316.3437876441232,-317.86016463029887,-313.42532537726464,1745594749.8937204
173,1,1,3,851,15,-1.1689453125,4.736328125,-0.65478515625,0.0,120.78857421875,403.86962890625,-265.4500803074629,-340.3132708082373,-301.38975367896103,1745594749.9014118
174,1,1,3,866,15,-3.3896484375,2.908203125,-0.091796875,-89.84375,49.25537109375,265.44189453125,-256.4688378362875,-364.2632507313715,-292.36307490523336,1745594749.9599044
175,1,1,3,881,15,-5.15869140625,3.1181640625,-2.8525390625,104.67529296875,113.525390625,19.53125,-190.6063930476682,-380.7288619285263,-290.8586284429455,1745594749.9670951
176,1,1,3,896,15,-4.6083984375,2.96728515625,1.642578125,2.0751953125,-77.08740234375,-107.2998046875,-181.62515057649284,-385.219483164114,-278.8230567446419,1745594749.9749157
177,1,1,3,911,15,3.8173828125,0.302734375,-0.30517578125,76.2939453125,-141.54052734375,-103.08837890625,-201.08450926403944,-380.7288619285263,-283.3363961315057,1745594749.9814281
178,1,1,3,926,15,-1.07373046875,0.8134765625,0.31591796875,-11.3525390625,-104.91943359375,-11.41357421875,-195.0970142832559,-362.7663769861756,-301.38975367896103,1745594749.988844
179,1,1,3,941,15,0.6396484375,1.376953125,0.97314453125,-54.6875,-87.0361328125,-102.96630859375,-201.08450926403944,-355.28200826019616,-314.9297718395526,1745594750.0009189
180,1,1,3,956,15,0.02783203125,0.8349609375,0.45654296875,21.05712890625,-17.51708984375,-61.46240234375,-211.5626254804107,-362.7663769861756,-311.9208789149767,1745594750.0191782
181,1,1,3,971,15,-0.06884765625,1.06103515625,-0.041015625,20.751953125,-23.13232421875,-62.19482421875,-207.07200424482303,-353.78513451500027,-316.43421830184053,1745594750.027553
182,1,1,3,986,15,0.306640625,0.921875,-0.06298828125,23.98681640625,-20.08056640625,-46.38671875,-189.10951930247234,-353.78513451500027,-305.9030930658249,1745594750.034006
183,1,1,4,1,15,0.119140625,0.98388671875,-0.12060546875,16.05224609375,3.5400390625,-48.40087890625,-219.0469942063902,-340.3132708082373,-301.38975367896103,1745594750.0405262
184,1,1,4,16,15,-0.06201171875,0.9970703125,-0.02734375,12.87841796875,-3.96728515625,-33.50830078125,-214.5563729708025,-353.78513451500027,-316.43421830184053,1745594750.0475888
185,1,1,4,31,15,0.04345703125,1.05517578125,0.02099609375,13.7939453125,-7.14111328125,-20.263671875,-231.02198416795733,-343.30701829862903,-302.89420014124903,1745594750.0540342
186,1,1,4,46,15,0.07958984375,1.0390625,-0.0048828125,15.2587890625,-4.2724609375,-13.427734375,-199.58763551884357,-343.30701829862903,-308.9119859904008,1745594750.0605085
187,1,1,4,61,15,0.1533203125,1.00732421875,-0.07763671875,13.36669921875,-5.67626953125,-9.33837890625,-231.02198416795733,-338.81639706304134,-295.3719678298093,1745594750.0747533
188,1,1,4,76,15,0.13720703125,1.03076171875,0.0322265625,11.77978515625,-9.1552734375,-9.033203125,-216.05324671599837,-347.7976395342167,-307.40753952811286,1745594750.081309
189,1,1,4,91,15,0.24853515625,1.02392578125,0.05029296875,12.02392578125,-13.36669921875,-13.73291015625,-225.03448918717373,-356.77888200539206,-313.42532537726464,1745594750.0936768
190,1,1,4,106,15,0.26220703125,1.05322265625,-0.04345703125,15.19775390625,-12.02392578125,-20.99609375,-216.05324671599837,-326.8414071014742,-307.40753952811286,1745594750.100204
191,1,1,4,121,15,0.1650390625,1.00244140625,0.01904296875,15.68603515625,-9.46044921875,-23.4375,-216.05324671599837,-334.32577582745364,-304.398646603537,1745594750.1067147
192,1,1,4,136,15,0.109375,0.99951171875,-0.1142578125,12.20703125,-13.61083984375,-22.03369140625,-226.53136293236963,-334.32577582745364,-320.94755768870436,1745594750.1137047
193,1,1,4,151,15,0.06591796875,0.9990234375,-0.05126953125,8.36181640625,-13.18359375,-20.3857421875,-216.05324671599837,-340.3132708082373,-328.46979000014414,1745594750.1272376
194,1,1,4,166,15,0.04443359375,0.9833984375,-0.0322265625,5.615234375,-8.6669921875,-17.63916015625,-229.5251104227614,-334.32577582745364,-328.46979000014414,1745594750.1337636
195,1,1,4,181,15,0.0390625,0.9970703125,-0.03564453125,3.7841796875,-8.1787109375,-13.00048828125,-223.53761544197786,-334.32577582745364,-317.93866476412853,1745594750.1404948
196,1,1,4,196,15,0.0888671875,0.99951171875,-0.080078125,0.9765625,-8.48388671875,-10.1318359375,-226.53136293236963,-322.3507858658865,-320.94755768870436,1745594750.1472435
197,1,1,4,211,15,0.0615234375,0.98193359375,-0.037109375,-1.15966796875,-7.4462890625,-8.60595703125,-220.54386795158607,-328.3382808466701,-319.4431112264165,1745594750.153763
198,1,1,4,226,15,0.08349609375,0.9921875,0.00439453125,-1.5869140625,-7.32421875,-7.4462890625,-223.53761544197786,-326.8414071014742,-307.40753952811286,1745594750.1602566
199,1,1,4,241,15,0.11328125,1.01953125,-0.0322265625,-2.197265625,-7.75146484375,-6.53076171875,-226.53136293236963,-304.3883009235358,-328.46979000014414,1745594750.466407
200,1,1,4,256,15,0.13818359375,1.02978515625,-0.05517578125,-4.57763671875,-11.5966796875,-9.33837890625,-229.5251104227614,-334.32577582745364,-311.9208789149767,1745594750.6037533
201,1,1,4,271,15,0.17626953125,1.03173828125,-0.04296875,-6.8359375,-15.0146484375,-13.24462890625,-231.02198416795733,-343.30701829862903,-313.42532537726464,1745594750.6102304
202,1,1,4,286,15,0.16845703125,1.05126953125,-0.09228515625,-9.58251953125,-15.5029296875,-19.1650390625,-225.03448918717373,-338.81639706304134,-319.4431112264165,1745594750.6281266
203,1,1,4,301,15,0.11083984375,1.009765625,-0.0244140625,-10.92529296875,-16.6015625,-23.3154296875,-204.07825675443127,-331.3320283370619,-329.97423646243203,1745594750.6357553
204,1,1,4,316,15,0.109375,1.01416015625,-0.02294921875,-11.1083984375,-16.7236328125,-25.390625,-208.56887799001893,-326.8414071014742,-328.46979000014414,1745594750.6430144
205,1,1,4,331,15,0.125,1.0400390625,-0.01904296875,-10.1318359375,-15.56396484375,-28.4423828125,-220.54386795158607,-313.36954339471123,-329.97423646243203,1745594750.6652746
206,1,1,4,346,15,0.14794921875,1.068359375,-0.05908203125,-11.65771484375,-16.4794921875,-32.958984375,-225.03448918717373,-313.36954339471123,-316.43421830184053,1745594750.6717489
207,1,1,4,361,15,0.13134765625,1.04736328125,-0.00732421875,-11.8408203125,-16.9677734375,-37.2314453125,-229.5251104227614,-322.3507858658865,-320.94755768870436,1745594750.6782238
208,1,1,4,376,15,0.06298828125,1.044921875,-0.0078125,-11.71875,-17.7001953125,-41.93115234375,-237.0094791487409,-334.32577582745364,-335.99202231158387,1745594750.6849341
209,1,1,4,391,15,0.06396484375,1.04931640625,-0.0107421875,-10.1318359375,-19.34814453125,-43.64013671875,-250.48134285550393,-308.8789221591235,-339.00091523615976,1745594750.691815
210,1,1,4,406,15,0.0546875,1.0712890625,-0.0166015625,-11.8408203125,-21.91162109375,-47.7294921875,-248.98446911030803,-313.36954339471123,-332.9831293870079,1745594750.765285
211,1,1,4,421,15,0.095703125,1.10302734375,-0.01220703125,-13.97705078125,-25.45166015625,-49.13330078125,-242.99697412952446,-317.86016463029887,-337.4964687738718,1745594750.7717297
212,1,1,4,436,15,0.08154296875,1.138671875,-0.03173828125,-15.5029296875,-26.0009765625,-51.81884765625,-248.98446911030803,-295.4070584523605,-343.5142546230236,1745594750.7781825
213,1,1,4,451,15,0.142578125,1.0830078125,-0.009765625,-15.380859375,-24.10888671875,-52.490234375,-263.953206562267,-310.3757959043194,-337.4964687738718,1745594750.7862365
214,1,1,4,466,15,0.1298828125,1.0966796875,0.08740234375,-16.9677734375,-19.53125,-58.2275390625,-248.98446911030803,-292.4133109619687,-337.4964687738718,1745594750.7982805
215,1,1,4,481,15,0.19287109375,1.1123046875,0.0859375,-18.00537109375,-14.34326171875,-67.626953125,-268.4438277978546,-280.4383210004015,-335.99202231158387,1745594750.8047025
216,1,1,4,496,15,0.25830078125,1.2919921875,0.0791015625,-21.240234375,-6.7138671875,-80.26123046875,-269.9407015430505,-295.4070584523605,-323.95645061328025,1745594750.811338
217,1,1,4,511,15,0.2451171875,1.24853515625,0.13134765625,-15.2587890625,-5.126953125,-95.458984375,-266.9469540526587,-278.9414472552056,-329.97423646243203,1745594750.8178263
218,1,1,4,526,15,0.365234375,1.49755859375,0.26318359375,-9.09423828125,-12.51220703125,-112.85400390625,-283.4125652498136,-272.9539522744221,-331.47868292472,1745594750.8242357
219,1,1,4,541,15,0.537109375,1.45166015625,0.361328125,-3.72314453125,-13.00048828125,-136.8408203125,-277.42507026902996,-263.9727098032467,-332.9831293870079,1745594750.8307872
220,1,1,4,556,15,0.6259765625,1.7099609375,0.26953125,6.34765625,-15.56396484375,-161.4990234375,-290.89693397579305,-262.47583605805085,-342.0098081607356,1745594750.8381698
221,1,1,4,571,15,1.21826171875,2.109375,0.16845703125,19.83642578125,38.87939453125,-178.16162109375,-307.3625451729478,-254.99146733207135,-345.01870108531153,1745594750.8445966
222,1,1,4,586,15,1.04833984375,1.7431640625,0.07421875,-12.75634765625,53.77197265625,-207.8857421875,-304.368797682556,-237.02898238972065,-352.54093339675126,1745594750.8512492
223,1,1,4,601,15,0.36669921875,1.64501953125,-0.37548828125,-30.2734375,71.533203125,-211.85302734375,-307.3625451729478,-229.54461366374116,-339.00091523615976,1745594750.857739
224,1,1,4,616,15,-0.29150390625,1.4189453125,-0.85400390625,5.0048828125,85.99853515625,-184.6923828125,-302.8719239373602,-235.53210864452475,-326.9653435378562,1745594750.956249
225,1,1,4,631,15,-0.68603515625,1.18603515625,-0.9091796875,1.28173828125,33.0810546875,-148.3154296875,-317.8406613893191,-222.06024493776172,-349.5320404721753,1745594750.9626808
226,1,1,4,646,15,0.9228515625,0.8134765625,-0.60400390625,-2.62451171875,-14.58740234375,-97.412109375,-313.3500401537314,-217.56962370217403,-329.97423646243203,1745594750.9744306
227,1,1,4,661,15,1.65185546875,0.2880859375,-0.32470703125,4.21142578125,-28.4423828125,-21.6064453125,-316.3437876441232,-217.56962370217403,-343.5142546230236,1745594750.9809058
228,1,1,4,676,15,1.0458984375,0.25634765625,-0.05126953125,-6.28662109375,-22.3388671875,29.96826171875,-311.85316640853557,-208.5883812309987,-339.00091523615976,1745594751.0014586
229,1,1,4,691,15,0.6962890625,0.11669921875,-0.00732421875,-20.3857421875,-33.99658203125,61.58447265625,-322.3312826249068,-216.07274995697813,-339.00091523615976,1745594751.0185778
230,1,1,4,706,15,0.75341796875,0.0849609375,-0.01953125,-26.3671875,-49.8046875,115.90576171875,-323.82815637010265,-196.61339126943153,-351.0364869344633,1745594751.025079
231,1,1,4,721,15,0.90869140625,0.09765625,-0.04638671875,-15.07568359375,-22.216796875,157.470703125,-323.82815637010265,-199.60713875982333,-332.9831293870079,1745594751.0322037
232,1,1,4,736,15,0.77734375,0.19921875,0.05078125,-3.60107421875,23.681640625,197.509765625,-313.3500401537314,-210.08525497619456,-319.4431112264165,1745594751.0401254
233,1,1,4,751,15,0.5888671875,0.33203125,0.072265625,5.79833984375,75.86669921875,231.01806640625,-302.8719239373602,-217.56962370217403,-323.95645061328025,1745594751.0468364
234,1,1,4,766,15,0.53564453125,0.48779296875,-0.02783203125,11.77978515625,126.64794921875,258.30078125,-286.40631274020535,-240.02272988011242,-320.94755768870436,1745594751.0540202
235,1,1,4,781,15,0.42431640625,0.791015625,-0.19384765625,14.16015625,165.83251953125,278.62548828125,-277.42507026902996,-238.52585613491652,-326.9653435378562,1745594751.0790532
236,1,1,4,796,15,0.0947265625,0.9990234375,-0.23388671875,10.8642578125,179.50439453125,291.6259765625,-247.48759536511216,-287.922689726381,-317.93866476412853,1745594751.0865884
237,1,1,4,811,15,0.01953125,1.32763671875,-0.306640625,6.40869140625,170.59326171875,294.37255859375,-235.512605403545,-295.4070584523605,-305.9030930658249,1745594751.0938852
238,1,1,4,826,15,-0.693359375,2.58544921875,-0.5703125,11.16943359375,151.55029296875,297.7294921875,-210.0657517352148,-317.86016463029887,-289.35418198065753,1745594751.1004226
239,1,1,4,841,15,-0.72607421875,2.24609375,-0.6748046875,51.6357421875,209.77783203125,412.65869140625,-199.58763551884357,-331.3320283370619,-292.36307490523336,1745594751.1069095
240,1,1,4,856,15,-3.19873046875,5.97119140625,-1.0908203125,-84.9609375,-6.34765625,150.5126953125,-160.66891814375037,-356.77888200539206,-289.35418198065753,1745594751.1140747
241,1,1,4,871,15,-13.68505859375,4.83447265625,-0.958984375,-109.55810546875,-152.587890625,-127.8076171875,-147.19705443698734,-364.2632507313715,-284.84084259379364,1745594751.120587
242,1,1,4,886,15,4.06298828125,-0.8662109375,0.28515625,62.43896484375,-150.45166015625,-145.1416015625,-144.20330694659552,-340.3132708082373,-280.32750320692986,1745594751.127049
243,1,1,4,901,15,-0.09912109375,0.2548828125,0.4541015625,-28.25927734375,-75.74462890625,-29.23583984375,-163.66266563414214,-343.30701829862903,-292.36307490523336,1745594751.1334927
244,1,1,4,916,15,1.60693359375,1.48876953125,-0.76904296875,-58.837890625,-56.5185546875,-85.02197265625,-171.1470343601216,-331.3320283370619,-316.43421830184053,1745594751.1881878
245,1,1,4,931,15,-0.6044921875,1.0859375,0.27587890625,-2.5634765625,9.27734375,-85.99853515625,-163.66266563414214,-325.3445333562783,-292.36307490523336,1745594751.1950095
246,1,1,4,946,15,-0.1015625,0.99755859375,0.142578125,0.42724609375,-17.39501953125,-53.77197265625,-181.62515057649284,-320.85391212069067,-298.3808607543852,1745594751.2021203
247,1,1,4,961,15,0.0302734375,1.0,-0.06982421875,6.34765625,0.732421875,-49.9267578125,-181.62515057649284,-320.85391212069067,-298.3808607543852,1745594751.208608
248,1,1,4,976,15,-0.01025390625,1.0712890625,-0.03759765625,6.77490234375,-3.47900390625,-48.095703125,-196.59388802845177,-325.3445333562783,-302.89420014124903,1745594751.2151093
249,1,1,4,991,15,-0.02685546875,0.97119140625,-0.2138671875,-0.30517578125,-8.056640625,-41.80908203125,-189.10951930247234,-313.36954339471123,-308.9119859904008,1745594751.2221417
250,1,1,5,6,15,0.03759765625,1.05712890625,-0.04248046875,-8.7890625,-8.85009765625,-36.07177734375,-189.10951930247234,-307.3820484139276,-298.3808607543852,1745594751.228633
251,1,1,5,21,15,0.11376953125,1.0517578125,-0.0498046875,-3.72314453125,-15.380859375,-32.89794921875,-192.1032667928641,-313.36954339471123,-298.3808607543852,1745594751.2350814
252,1,1,5,36,15,0.05712890625,1.044921875,0.00830078125,-4.638671875,-12.14599609375,-36.56005859375,-186.1157718120805,-310.3757959043194,-305.9030930658249,1745594751.2430885
253,1,1,5,51,15,-0.005859375,1.0166015625,0.0,-4.638671875,-12.87841796875,-35.21728515625,-186.1157718120805,-317.86016463029887,-292.36307490523336,1745594751.2495773
254,1,1,5,66,15,-0.0048828125,1.02734375,0.06201171875,-3.7841796875,-11.29150390625,-33.203125,-196.59388802845177,-313.36954339471123,-298.3808607543852,1745594751.256158
255,1,1,5,81,15,-0.03173828125,1.03271484375,0.0087890625,-2.3193359375,-10.43701171875,-30.76171875,-198.09076177364767,-311.87266964951533,-320.94755768870436,1745594751.269192
256,1,1,5,96,15,-0.0615234375,1.01318359375,-0.025390625,-5.06591796875,-7.9345703125,-28.3203125,-204.07825675443127,-320.85391212069067,-295.3719678298093,1745594751.275708
257,1,1,5,111,15,-0.04052734375,1.01611328125,-0.0869140625,-10.009765625,-6.89697265625,-25.32958984375,-199.58763551884357,-299.89767968794814,-295.3719678298093,1745594751.282161
258,1,1,5,126,15,0.00390625,1.02392578125,-0.0380859375,-14.34326171875,-7.01904296875,-23.5595703125,-190.6063930476682,-308.8789221591235,-307.40753952811286,1745594751.2890851
259,1,1,5,141,15,-0.03466796875,1.02685546875,-0.0556640625,-16.54052734375,-6.2255859375,-22.76611328125,-211.5626254804107,-293.9101847071646,-293.86752136752136,1745594751.2956033
260,1,1,5,156,15,-0.0302734375,1.03857421875,-0.0283203125,-19.47021484375,-7.2021484375,-22.03369140625,-192.1032667928641,-295.4070584523605,-292.36307490523336,1745594751.3073888
261,1,1,5,171,15,-0.06884765625,1.01953125,-0.0322265625,-24.169921875,-7.87353515625,-21.30126953125,-198.09076177364767,-298.40080594275224,-290.8586284429455,1745594751.3201926
262,1,1,5,186,15,-0.142578125,0.99951171875,-0.05224609375,-29.96826171875,-8.4228515625,-17.822265625,-201.08450926403944,-304.3883009235358,-301.38975367896103,1745594751.3267202
263,1,1,5,201,15,-0.12841796875,1.0283203125,0.0107421875,-34.48486328125,-10.92529296875,-9.6435546875,-214.5563729708025,-302.8914271783399,-302.89420014124903,1745594751.3331497
264,1,1,5,216,15,-0.0732421875,1.05908203125,0.02001953125,-36.07177734375,-12.75634765625,-4.33349609375,-198.09076177364767,-290.9164372167728,-293.86752136752136,1745594751.3416226
265,1,1,5,231,15,-0.09375,1.048828125,0.03369140625,-37.7197265625,-15.68603515625,-1.220703125,-207.07200424482303,-289.4195634715769,-305.9030930658249,1745594751.3481266
266,1,1,5,246,15,-0.09716796875,1.01025390625,0.05517578125,-40.34423828125,-17.76123046875,0.3662109375,-231.02198416795733,-292.4133109619687,-302.89420014124903,1745594751.3545642
267,1,1,5,261,15,-0.0234375,0.98583984375,0.0517578125,-43.701171875,-20.6298828125,0.67138671875,-217.5501204611943,-295.4070584523605,-326.9653435378562,1745594751.3615696
268,1,1,5,276,15,0.0283203125,1.01904296875,0.09130859375,-46.5087890625,-19.34814453125,-2.25830078125,-217.5501204611943,-284.9289422359892,-313.42532537726464,1745594751.3680801
269,1,1,5,291,15,0.048828125,1.0205078125,0.103515625,-48.9501953125,-15.44189453125,-8.1787109375,-238.50635289393676,-289.4195634715769,-313.42532537726464,1745594751.395482
270,1,1,5,306,15,0.0234375,1.05126953125,0.12744140625,-47.91259765625,-18.5546875,-13.24462890625,-245.99072161991626,-302.8914271783399,-305.9030930658249,1745594751.418654
271,1,1,5,321,15,0.166015625,1.1806640625,0.125,-46.20361328125,-16.4794921875,-18.9208984375,-235.512605403545,-281.93519474559736,-313.42532537726464,1745594751.425888
272,1,1,5,336,15,0.0947265625,0.9150390625,0.1796875,-43.5791015625,-11.16943359375,-29.72412109375,-244.49384787472036,-272.9539522744221,-307.40753952811286,1745594751.4325588
273,1,1,5,351,15,0.13720703125,1.22314453125,0.1796875,-39.55078125,-10.80322265625,-41.93115234375,-242.99697412952446,-292.4133109619687,-295.3719678298093,1745594751.4789367
274,1,1,5,366,15,0.16162109375,1.15283203125,0.205078125,-38.2080078125,-6.9580078125,-53.5888671875,-253.4750903458957,-274.450826019618,-308.9119859904008,1745594751.48656
275,1,1,5,381,15,0.39697265625,1.18798828125,0.39501953125,-33.75244140625,-6.591796875,-73.1201171875,-245.99072161991626,-281.93519474559736,-316.43421830184053,1745594751.4947639
276,1,1,5,396,15,0.15478515625,1.36474609375,0.2109375,-31.79931640625,1.953125,-81.23779296875,-262.4563328170711,-275.9476997648139,-301.38975367896103,1745594751.5012734
277,1,1,5,411,15,0.2177734375,1.3251953125,0.14306640625,-16.2353515625,12.6953125,-87.2802734375,-259.4625853266793,-271.4570785292262,-313.42532537726464,1745594751.5085647
278,1,1,5,426,15,0.23046875,1.302734375,0.08447265625,-13.0615234375,26.79443359375,-97.16796875,-275.92819652383406,-265.4695835484426,-301.38975367896103,1745594751.5149915
279,1,1,5,441,15,0.21923828125,1.25390625,0.31201171875,-14.95361328125,49.49951171875,-97.412109375,-274.43132277863816,-271.4570785292262,-308.9119859904008,1745594751.521436
280,1,1,5,456,15,0.009765625,1.21875,0.2880859375,-19.04296875,63.17138671875,-98.9990234375,-284.90943899500945,-278.9414472552056,-305.9030930658249,1745594751.5286858
281,1,1,5,471,15,-0.1376953125,1.04052734375,0.0908203125,-25.146484375,63.96484375,-96.3134765625,-281.9156915046177,-260.97896231285495,-308.9119859904008,1745594751.5351357
282,1,1,5,486,15,-0.25634765625,0.95166015625,-0.04638671875,-18.61572265625,54.62646484375,-94.6044921875,-283.4125652498136,-254.99146733207135,-311.9208789149767,1745594751.569543
283,1,1,5,501,15,-0.3681640625,0.97021484375,-0.12841796875,-10.498046875,42.54150390625,-83.92333984375,-277.42507026902996,-266.9664572936385,-278.8230567446419,1745594751.5760064
284,1,1,5,516,15,-0.3154296875,1.02490234375,-0.22412109375,-4.45556640625,25.08544921875,-84.28955078125,-290.89693397579305,-269.9602047840303,-296.87641429209725,1745594751.5824313
285,1,1,5,531,15,-0.2119140625,1.12158203125,-0.2177734375,-4.150390625,6.9580078125,-84.16748046875,-295.3875552113807,-256.4883410772673,-302.89420014124903,1745594751.5901406
286,1,1,5,546,15,-0.1982421875,1.095703125,-0.13330078125,1.0986328125,-9.6435546875,-74.5849609375,-302.8719239373602,-253.49459358687545,-278.8230567446419,1745594751.5983233
287,1,1,5,561,15,-0.11572265625,1.02734375,-0.03564453125,3.41796875,-23.92578125,-72.021484375,-298.3813027017725,-238.52585613491652,-292.36307490523336,1745594751.6049619
288,1,1,5,576,15,-0.22265625,0.99462890625,-0.03369140625,3.35693359375,-22.0947265625,-74.3408203125,-293.8906814661848,-240.02272988011242,-280.32750320692986,1745594751.612363
289,1,1,5,591,15,-0.1240234375,0.962890625,0.0361328125,9.033203125,-21.6064453125,-65.12451171875,-310.3562926633397,-246.010224860896,-295.3719678298093,1745594751.618841
290,1,1,5,606,15,-0.16259765625,0.9482421875,0.07177734375,17.2119140625,-21.91162109375,-51.6357421875,-313.3500401537314,-238.52585613491652,-298.3808607543852,1745594751.6254938
291,1,1,5,621,15,-0.24755859375,0.98828125,0.0390625,23.4375,-24.10888671875,-47.79052734375,-304.368797682556,-216.07274995697813,-296.87641429209725,1745594751.6328151
292,1,1,5,636,15,-0.359375,0.8857421875,0.07421875,31.18896484375,-30.09033203125,-35.09521484375,-317.8406613893191,-226.5508661733494,-307.40753952811286,1745594751.6394622
293,1,1,5,651,15,-0.349609375,0.673828125,0.107421875,11.5966796875,-72.998046875,-46.7529296875,-314.8469138989273,-216.07274995697813,-311.9208789149767,1745594751.6695478
294,1,1,5,666,15,-0.033203125,0.9345703125,0.083984375,-1.89208984375,-82.45849609375,-25.7568359375,-313.3500401537314,-225.0539924281535,-298.3808607543852,1745594751.6760492
295,1,1,5,681,15,0.14599609375,0.6689453125,0.02099609375,9.33837890625,-59.50927734375,-0.54931640625,-313.3500401537314,-220.56337119256582,-302.89420014124903,1745594751.6824658
296,1,1,5,696,15,0.36572265625,0.64599609375,-0.0556640625,21.240234375,-24.35302734375,14.09912109375,-311.85316640853557,-216.07274995697813,-307.40753952811286,1745594751.6952574
297,1,1,5,711,15,0.30517578125,0.70849609375,-0.06591796875,33.8134765625,21.91162109375,30.2734375,-310.3562926633397,-217.56962370217403,-313.42532537726464,1745594751.7017038
298,1,1,5,726,15,-0.0439453125,0.73095703125,0.0439453125,34.72900390625,45.34912109375,38.39111328125,-314.8469138989273,-205.59463374060687,-320.94755768870436,1745594751.7081451
299,1,1,5,741,15,-0.15478515625,0.77099609375,0.07275390625,35.5224609375,30.45654296875,48.828125,-275.92819652383406,-229.54461366374116,-304.398646603537,1745594751.7157004
300,1,1,5,756,15,-0.005859375,0.85400390625,0.08740234375,30.1513671875,13.00048828125,57.7392578125,-290.89693397579305,-229.54461366374116,-314.9297718395526,1745594751.722135
301,1,1,5,771,15,0.1708984375,0.794921875,0.1630859375,33.50830078125,6.16455078125,72.8759765625,-263.953206562267,-225.0539924281535,-326.9653435378562,1745594751.7285886
302,1,1,5,786,15,0.21240234375,0.76953125,0.27587890625,37.9638671875,11.29150390625,85.5712890625,-268.4438277978546,-229.54461366374116,-320.94755768870436,1745594751.7359214
303,1,1,5,801,15,0.205078125,0.78173828125,0.29833984375,41.3818359375,22.3388671875,96.74072265625,-263.953206562267,-231.04148740893706,-323.95645061328025,1745594751.742355
304,1,1,5,816,15,0.20556640625,0.826171875,0.3017578125,42.8466796875,33.99658203125,108.21533203125,-256.4688378362875,-235.53210864452475,-329.97423646243203,1745594751.766587
305,1,1,5,831,15,0.1533203125,0.91162109375,0.228515625,40.771484375,49.1943359375,121.03271484375,-240.00322663913266,-247.5070986060919,-317.93866476412853,1745594751.773843
306,1,1,5,846,15,0.09912109375,0.95556640625,0.16455078125,35.82763671875,56.09130859375,133.23974609375,-211.5626254804107,-244.5133511157001,-328.46979000014414,1745594751.7803524
307,1,1,5,861,15,0.1064453125,0.962890625,0.14404296875,31.6162109375,56.396484375,145.32470703125,-211.5626254804107,-265.4695835484426,-314.9297718395526,1745594752.2043834
308,1,1,5,876,15,0.1259765625,0.96533203125,0.099609375,29.47998046875,53.8330078125,156.92138671875,-180.12827683129697,-265.4695835484426,-314.9297718395526,1745594752.2108958
309,1,1,5,891,15,0.13134765625,0.99169921875,0.07275390625,26.67236328125,52.24609375,166.9921875,-168.1532868697298,-284.9289422359892,-313.42532537726464,1745594752.217363
310,1,1,5,906,15,0.11669921875,1.05419921875,0.0693359375,25.5126953125,48.76708984375,177.3681640625,-171.1470343601216,-274.450826019618,-316.43421830184053,1745594752.2244747
311,1,1,5,921,15,0.10693359375,1.0888671875,0.10107421875,24.47509765625,44.189453125,184.63134765625,-150.1908019273791,-302.8914271783399,-323.95645061328025,1745594752.4181857
312,1,1,5,936,15,0.04541015625,1.13330078125,0.11376953125,26.123046875,50.47607421875,188.720703125,-123.24707451385304,-304.3883009235358,-325.4608970755682,1745594752.4246178
313,1,1,5,951,15,0.00341796875,1.1201171875,0.20703125,32.470703125,57.4951171875,193.9697265625,-112.76895829748179,-304.3883009235358,-317.93866476412853,1745594752.431989
314,1,1,5,966,15,-0.1328125,1.22802734375,0.3134765625,39.306640625,58.16650390625,193.78662109375,-90.3158521195434,-307.3820484139276,-319.4431112264165,1745594752.4384515
315,1,1,5,981,15,-0.3984375,2.14501953125,-0.05126953125,72.8759765625,91.30859375,227.5390625,-76.84398841278035,-311.87266964951533,-314.9297718395526,1745594752.4448683
316,1,1,5,996,15,-1.00634765625,1.3720703125,0.232421875,30.1513671875,57.4951171875,183.16650390625,-64.86899845121322,-313.36954339471123,-313.42532537726464,1745594752.4538178
317,1,1,6,11,15,-1.19677734375,1.763671875,0.25,-0.18310546875,-1.8310546875,148.8037109375,-24.45340733092411,-308.8789221591235,-304.398646603537,1745594752.460334
318,1,1,6,26,15,-0.6044921875,1.158203125,0.1240234375,-2.5634765625,-18.00537109375,133.97216796875,-24.45340733092411,-308.8789221591235,-304.398646603537,1745594752.4667974
319,1,1,6,41,15,-1.60546875,1.75,-0.05810546875,-24.35302734375,-54.99267578125,81.97021484375,-6.490922388573395,-292.4133109619687,-323.95645061328025,1745594752.474118
320,1,1,6,56,15,-3.04150390625,4.03173828125,-1.94140625,73.54736328125,-131.34765625,46.5087890625,-12.478417369356967,-289.4195634715769,-302.89420014124903,1745594752.4806116
321,1,1,6,71,15,-1.6904296875,1.35400390625,0.974609375,-32.5927734375,-156.6162109375,10.07080078125,-16.969038604944643,-257.98521482246315,-331.47868292472,1745594752.4870665
322,1,1,6,86,15,3.099609375,1.38720703125,0.33935546875,-76.23291015625,-34.0576171875,-85.63232421875,-10.981543624161073,-254.99146733207135,-342.0098081607356,1745594752.4944255
323,1,1,6,101,15,0.01416015625,1.2236328125,-0.076171875,-19.95849609375,-23.74267578125,-19.95849609375,-15.472164859748752,-253.49459358687545,-329.97423646243203,1745594752.5008996
324,1,1,6,116,15,0.31298828125,0.8330078125,0.46337890625,-14.83154296875,-0.8544921875,-66.0400390625,-21.45965984053232,-251.99771984167958,-325.4608970755682,1745594752.5095668
325,1,1,6,131,15,0.1865234375,1.0146484375,0.1943359375,11.53564453125,7.99560546875,-36.1328125,-24.45340733092411,-254.99146733207135,-331.47868292472,1745594752.516186
326,1,1,6,146,15,0.181640625,0.99462890625,-0.0341796875,12.02392578125,3.23486328125,-41.1376953125,-31.937776056903573,-272.9539522744221,-331.47868292472,1745594752.52261
327,1,1,6,161,15,0.26416015625,0.9951171875,-0.15380859375,5.18798828125,5.43212890625,-32.8369140625,-33.434649802099464,-253.49459358687545,-337.4964687738718,1745594752.5290716
328,1,1,6,176,15,0.0673828125,1.021484375,-0.10302734375,-3.5400390625,4.8828125,-30.70068359375,-16.969038604944643,-262.47583605805085,-328.46979000014414,1745594752.5614896
329,1,1,6,191,15,0.1318359375,1.02978515625,-0.046875,-7.14111328125,-10.6201171875,-20.751953125,-18.465912350140538,-256.4883410772673,-326.9653435378562,1745594752.5744941
330,1,1,6,206,15,0.22216796875,1.00634765625,0.0419921875,-4.2724609375,-14.404296875,-15.93017578125,-24.45340733092411,-257.98521482246315,-325.4608970755682,1745594752.5809872
331,1,1,6,221,15,0.21044921875,1.02392578125,0.080078125,-2.8076171875,-14.22119140625,-16.66259765625,-42.41589227327482,-254.99146733207135,-325.4608970755682,1745594752.5874262
332,1,1,6,236,15,0.17822265625,1.005859375,0.04248046875,-0.91552734375,-7.6904296875,-17.15087890625,-37.925271037687146,-265.4695835484426,-328.46979000014414,1745594752.5947187
333,1,1,6,251,15,0.18994140625,0.97265625,0.03466796875,0.48828125,-2.9296875,-16.2353515625,-30.44090231170768,-256.4883410772673,-354.0453798590392,1745594752.6011915
334,1,1,6,266,15,0.21484375,1.015625,-0.0498046875,-1.15966796875,-1.5869140625,-15.0146484375,-18.465912350140538,-263.9727098032467,-332.9831293870079,1745594752.609093
335,1,1,6,281,15,0.197265625,1.015625,-0.02197265625,-4.0283203125,-2.9296875,-16.17431640625,-37.925271037687146,-247.5070986060919,-335.99202231158387,1745594752.6163769
336,1,1,6,296,15,0.1572265625,1.02001953125,0.00634765625,-6.2255859375,-3.7841796875,-14.892578125,-46.9065135088625,-249.00397235128779,-354.0453798590392,1745594752.6228023
337,1,1,6,311,15,0.09765625,0.99560546875,0.0322265625,-6.4697265625,-5.615234375,-10.80322265625,-40.91901852807893,-266.9664572936385,-348.0275940098874,1745594752.6292558
338,1,1,6,326,15,0.14892578125,0.9833984375,0.009765625,-7.8125,-7.14111328125,-6.8359375,-43.91276601847071,-260.97896231285495,-348.0275940098874,1745594752.6365244
339,1,1,6,341,15,0.1630859375,0.98974609375,0.00439453125,-10.68115234375,-6.7138671875,-5.79833984375,-43.91276601847071,-260.97896231285495,-340.50536169844764,1745594752.6429522
340,1,1,6,356,15,0.1572265625,0.99267578125,0.01171875,-12.0849609375,-6.34765625,-5.0048828125,-52.89400848964607,-265.4695835484426,-342.0098081607356,1745594752.6494093
341,1,1,6,371,15,0.154296875,1.00537109375,-0.0166015625,-12.39013671875,-4.2724609375,-3.84521484375,-54.39088223484197,-256.4883410772673,-343.5142546230236,1745594752.6579638
342,1,1,6,386,15,0.138671875,0.9931640625,0.01611328125,-13.48876953125,-3.662109375,-2.25830078125,-37.925271037687146,-269.9602047840303,-355.54982632132715,1745594752.6646185
343,1,1,6,401,15,0.17041015625,0.99365234375,-0.01904296875,-14.58740234375,-3.41796875,-0.67138671875,-37.925271037687146,-257.98521482246315,-342.0098081607356,1745594752.706483
344,1,1,6,416,15,0.11669921875,0.99853515625,0.03759765625,-15.7470703125,-6.28662109375,-2.25830078125,-60.37837721562554,-254.99146733207135,-345.01870108531153,1745594752.7129605
345,1,1,6,431,15,0.189453125,1.0146484375,0.02392578125,-19.34814453125,-9.33837890625,-3.84521484375,-57.38462972523375,-253.49459358687545,-343.5142546230236,1745594752.720226
346,1,1,6,446,15,0.19091796875,1.00634765625,0.0380859375,-22.88818359375,-11.41357421875,-9.58251953125,-57.38462972523375,-266.9664572936385,-354.0453798590392,1745594752.726755
347,1,1,6,461,15,0.2373046875,1.0146484375,0.0263671875,-23.98681640625,-9.3994140625,-14.22119140625,-57.38462972523375,-249.00397235128779,-340.50536169844764,1745594752.73322
348,1,1,6,476,15,0.20068359375,1.0166015625,0.03564453125,-28.01513671875,-11.16943359375,-21.17919921875,-63.37212470601732,-254.99146733207135,-355.54982632132715,1745594752.8383677
349,1,1,6,491,15,0.2333984375,1.06298828125,0.01953125,-31.1279296875,-13.671875,-27.9541015625,-66.36587219640911,-254.99146733207135,-349.5320404721753,1745594752.8450089
350,1,1,6,506,15,0.39453125,1.1015625,-0.0458984375,-23.74267578125,-11.962890625,-37.41455078125,-54.39088223484197,-249.00397235128779,-351.0364869344633,1745594752.8514771
351,1,1,6,521,15,0.36083984375,0.9755859375,0.11328125,-34.66796875,-18.1884765625,-54.5654296875,-63.37212470601732,-251.99771984167958,-345.01870108531153,1745594752.8597643
352,1,1,6,536,15,0.35888671875,1.00927734375,0.15380859375,-35.94970703125,-14.58740234375,-68.7255859375,-55.88775598003785,-257.98521482246315,-345.01870108531153,1745594752.8662663
353,1,1,6,551,15,0.40966796875,1.1083984375,0.12060546875,-34.72900390625,-7.50732421875,-81.298828125,-73.85024092238858,-265.4695835484426,-355.54982632132715,1745594752.8726773
354,1,1,6,566,15,0.3603515625,1.125,-0.00244140625,-35.0341796875,8.23974609375,-91.97998046875,-76.84398841278035,-247.5070986060919,-355.54982632132715,1745594752.879947
355,1,1,6,581,15,0.21728515625,1.109375,0.08251953125,-32.04345703125,12.26806640625,-104.18701171875,-76.84398841278035,-257.98521482246315,-366.08095155734276,1745594752.8864377
356,1,1,6,596,15,0.21435546875,1.2021484375,0.0576171875,-31.43310546875,5.31005859375,-114.31884765625,-70.85649343199678,-269.9602047840303,-352.54093339675126,1745594752.9317586
357,1,1,6,611,15,0.154296875,1.36474609375,0.00390625,-32.04345703125,-7.2021484375,-123.84033203125,-96.30334710032696,-246.010224860896,-351.0364869344633,1745594752.9496455
358,1,1,6,626,15,0.546875,1.41845703125,0.0234375,-18.4326171875,-20.99609375,-132.4462890625,-88.81897837434751,-254.99146733207135,-349.5320404721753,1745594752.9564188
359,1,1,6,641,15,0.36669921875,1.51806640625,0.1474609375,-24.169921875,-22.52197265625,-145.99609375,-102.29084208111054,-257.98521482246315,-363.07205863276687,1745594752.9651725
360,1,1,6,656,15,0.26171875,1.40966796875,0.20166015625,-17.4560546875,-26.79443359375,-148.62060546875,-109.77521080709,-251.99771984167958,-345.01870108531153,1745594752.9716213
361,1,1,6,671,15,0.3173828125,1.42626953125,0.0595703125,1.220703125,-10.986328125,-147.03369140625,-120.25332702346124,-254.99146733207135,-355.54982632132715,1745594752.9780757
362,1,1,6,686,15,0.19482421875,1.279296875,0.25341796875,17.88330078125,-4.45556640625,-153.4423828125,-121.75020076865715,-231.04148740893706,-364.5765050950548,1745594752.9904845
363,1,1,6,701,15,-0.11962890625,1.259765625,0.0595703125,-4.2724609375,-19.83642578125,-172.8515625,-130.7314432398325,-247.5070986060919,-345.01870108531153,1745594752.9970303
364,1,1,6,716,15,0.04931640625,1.36474609375,-0.205078125,-3.96728515625,-37.65869140625,-158.203125,-133.72519073022428,-229.54461366374116,-366.08095155734276,1745594753.0043058
365,1,1,6,731,15,0.13916015625,1.12646484375,-0.1455078125,0.48828125,-24.59716796875,-122.55859375,-129.23456949463662,-235.53210864452475,-343.5142546230236,1745594753.0123425
366,1,1,6,746,15,-0.3154296875,0.96875,-0.025390625,-5.2490234375,-31.18896484375,-106.50634765625,-157.67517065335855,-238.52585613491652,-358.55871924590303,1745594753.019191
367,1,1,6,761,15,0.18505859375,0.6533203125,-0.0751953125,7.2021484375,-34.7900390625,-89.84375,-151.687675672575,-219.06649744736993,-342.0098081607356,1745594753.0316794
368,1,1,6,776,15,0.02880859375,0.73388671875,0.02587890625,-0.3662109375,-41.3818359375,-77.81982421875,-160.66891814375037,-207.0915074858028,-354.0453798590392,1745594753.0381467
369,1,1,6,791,15,0.32958984375,0.65966796875,0.01220703125,2.62451171875,-39.12353515625,-46.142578125,-138.21581196581198,-222.06024493776172,-339.00091523615976,1745594753.0454352
370,1,1,6,806,15,0.3642578125,0.51806640625,0.05615234375,11.04736328125,-18.85986328125,-26.123046875,-160.66891814375037,-210.08525497619456,-354.0453798590392,1745594753.051858
371,1,1,6,821,15,0.2978515625,0.5205078125,0.0625,20.263671875,0.3662109375,-9.09423828125,-151.687675672575,-201.1040125050192,-352.54093339675126,1745594753.058298
372,1,1,6,836,15,0.18310546875,0.5185546875,0.07421875,27.099609375,12.0849609375,7.32421875,-153.18454941777088,-207.0915074858028,-351.0364869344633,1745594753.2632701
373,1,1,6,851,15,0.11181640625,0.5498046875,0.076171875,29.35791015625,16.4794921875,23.98681640625,-141.20955945620375,-208.5883812309987,-360.063165708191,1745594753.2705941
374,1,1,6,866,15,0.0830078125,0.654296875,0.04248046875,27.16064453125,18.00537109375,44.61669921875,-129.23456949463662,-202.6008862502151,-351.0364869344633,1745594753.277073
375,1,1,6,881,15,0.08544921875,0.7529296875,0.013671875,25.146484375,23.37646484375,66.10107421875,-129.23456949463662,-199.60713875982333,-343.5142546230236,1745594753.2834966
376,1,1,6,896,15,0.05126953125,0.7568359375,0.0078125,21.42333984375,30.82275390625,86.60888671875,-121.75020076865715,-202.6008862502151,-340.50536169844764,1745594753.4097805
377,1,1,6,911,15,0.08935546875,0.74755859375,0.06591796875,18.1884765625,35.09521484375,103.57666015625,-109.77521080709,-193.61964377903976,-342.0098081607356,1745594753.4181938
378,1,1,6,926,15,0.0869140625,0.740234375,0.0830078125,19.22607421875,39.1845703125,116.69921875,-82.83148339356393,-220.56337119256582,-343.5142546230236,1745594753.4299257
379,1,1,6,941,15,0.05615234375,0.77685546875,0.10595703125,19.47021484375,41.56494140625,128.23486328125,-88.81897837434751,-216.07274995697813,-331.47868292472,1745594753.4371216
380,1,1,6,956,15,0.01953125,0.86767578125,0.08349609375,18.24951171875,44.189453125,138.671875,-63.37212470601732,-208.5883812309987,-331.47868292472,1745594753.4435465
381,1,1,6,971,15,0.005859375,0.9658203125,0.07373046875,15.56396484375,46.81396484375,151.123046875,-52.89400848964607,-208.5883812309987,-335.99202231158387,1745594753.4500172
382,1,1,6,986,15,0.0087890625,1.01123046875,0.10302734375,13.427734375,46.44775390625,163.0859375,-31.937776056903573,-201.1040125050192,-331.47868292472,1745594753.457221
383,1,1,7,1,15,0.017578125,1.056640625,0.11083984375,11.90185546875,43.45703125,172.79052734375,-30.44090231170768,-210.08525497619456,-337.4964687738718,1745594753.4706137
384,1,1,7,16,15,0.0537109375,1.15234375,0.09033203125,10.25390625,41.9921875,178.7109375,-16.969038604944643,-205.59463374060687,-320.94755768870436,1745594753.4824824
385,1,1,7,31,15,-0.0546875,1.24755859375,-0.03662109375,9.09423828125,44.3115234375,190.36865234375,-3.4971748981816093,-210.08525497619456,-319.4431112264165,1745594753.489231
386,1,1,7,46,15,-0.01416015625,1.30224609375,0.0947265625,7.38525390625,29.60205078125,188.65966796875,30.930921241323926,-175.65715883668904,-317.93866476412853,1745594753.506494
387,1,1,7,61,15,-0.03125,1.26708984375,0.09033203125,9.1552734375,21.91162109375,184.38720703125,29.43404749612803,-166.6759163655137,-313.42532537726464,1745594753.5129287
388,1,1,7,76,15,-0.02392578125,1.2255859375,-0.01806640625,22.0947265625,29.1748046875,193.4814453125,54.8809011644582,-169.66966385590547,-335.99202231158387,1745594753.569439
389,1,1,7,91,15,-0.15576171875,1.35693359375,0.05517578125,29.84619140625,31.06689453125,197.1435546875,62.365269890437666,-151.70717891355474,-335.99202231158387,1745594753.6001525
390,1,1,7,106,15,-0.076171875,1.41943359375,0.07470703125,44.0673828125,39.00146484375,207.94677734375,77.3340073423966,-108.29784030287387,-325.4608970755682,1745594753.6066453
391,1,1,7,121,15,-0.54931640625,1.4560546875,0.37841796875,20.99609375,24.47509765625,148.4375,98.2902397751391,-118.77595651924511,-317.93866476412853,1745594753.6130462
392,1,1,7,136,15,-1.19873046875,2.45703125,-0.09912109375,24.2919921875,21.8505859375,96.923828125,98.2902397751391,-79.85723914415189,-307.40753952811286,1745594753.6397114
393,1,1,7,151,15,-5.283203125,1.6240234375,0.7646484375,-65.49072265625,-45.59326171875,-28.62548828125,101.28398726553088,-72.37287041817243,-301.38975367896103,1745594753.6462126
394,1,1,7,166,15,-3.75830078125,1.4384765625,0.06298828125,-49.74365234375,-98.32763671875,-52.55126953125,96.79336602994321,-70.87599667297654,-332.9831293870079,1745594753.6526573
395,1,1,7,181,15,2.4013671875,0.31640625,0.63037109375,-25.93994140625,-57.31201171875,-128.23486328125,102.78086101072677,-70.87599667297654,-326.9653435378562,1745594753.6591544
396,1,1,7,196,15,0.3046875,1.041015625,-0.03125,17.2119140625,-38.9404296875,-43.5791015625,90.80587104915965,-52.91351173062582,-314.9297718395526,1745594753.6658623
397,1,1,7,211,15,0.1123046875,1.1865234375,-0.38134765625,-3.173828125,-12.0849609375,-47.4853515625,92.30274479435553,-63.39162794699707,-298.3808607543852,1745594753.72379
398,1,1,7,226,15,0.27587890625,0.8974609375,0.150390625,3.84521484375,-7.32421875,-43.0908203125,117.74959846268571,-73.86974416336832,-316.43421830184053,1745594753.7422676
399,1,1,7,241,15,-0.01513671875,1.0322265625,0.0,-0.9765625,-5.92041015625,-37.04833984375,125.23396718866519,-66.38537543738886,-316.43421830184053,1745594753.7487733
400,1,1,7,256,15,0.2333984375,1.02978515625,-0.09326171875,-0.244140625,-9.8876953125,-28.74755859375,99.787113520335,-66.38537543738886,-308.9119859904008,1745594753.7552183
401,1,1,7,271,15,0.0859375,0.98193359375,-0.07080078125,-3.662109375,1.15966796875,-22.52197265625,99.787113520335,-60.397880456605286,-308.9119859904008,1745594753.7623036
402,1,1,7,286,15,0.10546875,0.970703125,-0.0224609375,-10.986328125,-3.47900390625,-15.13671875,102.78086101072677,-73.86974416336832,-305.9030930658249,1745594753.8273985
403,1,1,7,301,15,0.11669921875,0.990234375,0.068359375,-12.75634765625,-8.72802734375,-7.99560546875,105.77460850111856,-72.37287041817243,-317.93866476412853,1745594753.8338702
404,1,1,7,316,15,0.23291015625,0.99560546875,0.091796875,-8.48388671875,-7.99560546875,-4.0283203125,89.30899730396375,-60.397880456605286,-316.43421830184053,1745594753.8403401
405,1,1,7,331,15,0.2666015625,1.00341796875,0.10888671875,-4.39453125,-5.06591796875,-6.65283203125,96.79336602994321,-51.41663798542993,-313.42532537726464,1745594753.8472064
406,1,1,7,346,15,0.1875,0.9970703125,0.07568359375,1.03759765625,-2.86865234375,-9.1552734375,89.30899730396375,-73.86974416336832,-313.42532537726464,1745594753.8536417
407,1,1,7,361,15,0.20361328125,1.02783203125,0.0634765625,1.64794921875,-4.0283203125,-9.09423828125,90.80587104915965,-61.894754201801184,-320.94755768870436,1745594753.8601227
408,1,1,7,376,15,0.20654296875,1.01953125,-0.01220703125,0.67138671875,-4.33349609375,-8.6669921875,99.787113520335,-63.39162794699707,-316.43421830184053,1745594753.8666663
409,1,1,7,391,15,0.19384765625,1.03125,-0.02392578125,-1.64794921875,-7.38525390625,-8.36181640625,98.2902397751391,-75.36661790856421,-328.46979000014414,1745594753.879029
410,1,1,7,406,15,0.22705078125,1.00634765625,-0.00732421875,-4.5166015625,-8.056640625,-9.33837890625,89.30899730396375,-66.38537543738886,-329.97423646243203,1745594753.8855958
411,1,1,7,421,15,0.20703125,1.02587890625,-0.0205078125,-8.85009765625,-7.50732421875,-12.75634765625,101.28398726553088,-79.85723914415189,-325.4608970755682,1745594753.892075
412,1,1,7,436,15,0.24658203125,0.9755859375,-0.0009765625,-11.16943359375,-7.14111328125,-16.7236328125,101.28398726553088,-72.37287041817243,-328.46979000014414,1745594753.8985574
413,1,1,7,451,15,0.19873046875,1.01220703125,0.013671875,-13.00048828125,-7.99560546875,-16.41845703125,108.76835599151035,-75.36661790856421,-317.93866476412853,1745594753.9049854
414,1,1,7,466,15,0.1796875,1.01611328125,0.05078125,-16.05224609375,-5.859375,-17.822265625,98.2902397751391,-75.36661790856421,-328.46979000014414,1745594753.9115705
415,1,1,7,481,15,0.166015625,1.00830078125,0.02490234375,-16.7236328125,-4.5166015625,-17.15087890625,90.80587104915965,-69.37912292778066,-325.4608970755682,1745594753.9180634
416,1,1,7,496,15,0.2001953125,0.9521484375,0.01416015625,-15.68603515625,-3.41796875,-16.9677734375,83.32150232318018,-69.37912292778066,-317.93866476412853,1745594753.924919
417,1,1,7,511,15,0.1943359375,0.96533203125,0.03271484375,-16.357421875,-2.38037109375,-16.41845703125,95.29649228474732,-64.88850169219297,-331.47868292472,1745594753.9315073
418,1,1,7,526,15,0.1572265625,0.92431640625,0.0859375,-20.08056640625,-2.13623046875,-14.892578125,95.29649228474732,-79.85723914415189,-320.94755768870436,1745594753.9380124
419,1,1,7,541,15,0.14990234375,0.994140625,0.02587890625,-22.76611328125,-1.77001953125,-15.13671875,77.3340073423966,-97.81972408650262,-325.4608970755682,1745594753.9446564
420,1,1,7,556,15,0.12158203125,0.9892578125,0.01611328125,-25.5126953125,-3.2958984375,-15.7470703125,81.82462857798427,-84.34786037973959,-326.9653435378562,1745594753.9512665
421,1,1,7,571,15,0.1875,0.984375,0.0341796875,-24.47509765625,-5.9814453125,-17.39501953125,81.82462857798427,-91.83222910571904,-340.50536169844764,1745594753.9577534
422,1,1,7,586,15,0.2529296875,1.0224609375,0.0732421875,-25.81787109375,-8.7890625,-23.25439453125,68.35276487122125,-78.360365398956,-337.4964687738718,1745594753.969982
423,1,1,7,601,15,0.310546875,1.1142578125,0.11328125,-28.076171875,-6.591796875,-33.935546875,63.86214363563357,-70.87599667297654,-340.50536169844764,1745594753.9772651
424,1,1,7,616,15,0.412109375,1.16259765625,0.13623046875,-28.1982421875,1.52587890625,-49.86572265625,66.85589112602536,-75.36661790856421,-339.00091523615976,1745594753.9837115
425,1,1,7,631,15,0.3251953125,1.09912109375,0.22705078125,-24.47509765625,3.7841796875,-63.4765625,69.84963861641714,-93.32910285091494,-345.01870108531153,1745594753.9902773
426,1,1,7,646,15,0.314453125,1.0673828125,0.1201171875,-22.0947265625,6.53076171875,-77.392578125,77.3340073423966,-93.32910285091494,-339.00091523615976,1745594753.9967635
427,1,1,7,661,15,0.216796875,1.0283203125,0.1923828125,-18.12744140625,3.173828125,-89.2333984375,62.365269890437666,-90.33535536052314,-339.00091523615976,1745594754.0031831
428,1,1,7,676,15,0.201171875,1.119140625,0.12109375,-15.80810546875,8.97216796875,-97.412109375,74.3402598520048,-91.83222910571904,-354.0453798590392,1745594754.0105247
429,1,1,7,691,15,0.32080078125,1.33154296875,0.07275390625,-16.357421875,8.60595703125,-97.59521484375,72.84338610680892,-105.30409281248207,-342.0098081607356,1745594754.0170195
430,1,1,7,706,15,0.26416015625,1.30712890625,0.15673828125,-14.404296875,5.859375,-103.45458984375,80.32775483278839,-108.29784030287387,-331.47868292472,1745594754.0243266
431,1,1,7,721,15,0.2587890625,1.26416015625,0.2109375,-8.85009765625,6.89697265625,-108.642578125,83.32150232318018,-100.81347157689439,-339.00091523615976,1745594754.0309088
432,1,1,7,736,15,0.2333984375,1.13037109375,0.17431640625,2.44140625,29.47998046875,-106.201171875,57.87464865484999,-109.79471404806975,-343.5142546230236,1745594754.0373824
433,1,1,7,751,15,0.0068359375,1.1083984375,0.21484375,-0.18310546875,43.51806640625,-105.04150390625,77.3340073423966,-111.29158779326563,-339.00091523615976,1745594754.0438106
434,1,1,7,766,15,-0.1318359375,1.1142578125,0.13818359375,-3.173828125,37.78076171875,-106.0791015625,81.82462857798427,-114.28533528365743,-340.50536169844764,1745594754.0503478
435,1,1,7,781,15,-0.1728515625,1.15283203125,0.00146484375,-5.67626953125,23.8037109375,-106.50634765625,71.34651236161304,-127.75719899042046,-343.5142546230236,1745594754.0568357
436,1,1,7,796,15,-0.0458984375,1.1533203125,-0.0185546875,-2.9296875,18.24951171875,-97.35107421875,80.32775483278839,-133.74469397120401,-335.99202231158387,1745594754.0685747
437,1,1,7,811,15,-0.119140625,1.05126953125,-0.01904296875,-0.67138671875,14.6484375,-88.43994140625,74.3402598520048,-120.272830264441,-351.0364869344633,1745594754.0809047
438,1,1,7,826,15,-0.0244140625,0.7900390625,-0.00048828125,2.685546875,6.53076171875,-79.9560546875,66.85589112602536,-123.26657775483278,-335.99202231158387,1745594754.0874152
439,1,1,7,841,15,0.3525390625,0.77197265625,0.029296875,7.50732421875,4.57763671875,-57.06787109375,68.35276487122125,-127.75719899042046,-337.4964687738718,1745594754.0939476
440,1,1,7,856,15,0.20458984375,0.8203125,0.013671875,4.150390625,3.41796875,-37.7197265625,66.85589112602536,-139.7321889519876,-331.47868292472,1745594754.1004744
441,1,1,7,871,15,0.28125,0.85498046875,-0.1181640625,6.04248046875,-1.40380859375,-20.751953125,54.8809011644582,-126.26032524522458,-335.99202231158387,1745594754.106949
442,1,1,7,886,15,0.40087890625,0.8984375,-0.095703125,8.7890625,-10.25390625,-8.544921875,68.35276487122125,-124.76345150002867,-337.4964687738718,1745594754.1136642
443,1,1,7,901,15,0.447265625,0.8115234375,-0.01513671875,17.08984375,-2.8076171875,-9.8876953125,57.87464865484999,-114.28533528365743,-332.9831293870079,1745594754.1201694
444,1,1,7,916,15,0.162109375,0.83251953125,0.05029296875,26.18408203125,21.54541015625,-3.7841796875,69.84963861641714,-108.29784030287387,-325.4608970755682,1745594754.127588
445,1,1,7,931,15,-0.10595703125,0.85693359375,0.0625,21.91162109375,8.544921875,5.43212890625,74.3402598520048,-102.31034532209028,-332.9831293870079,1745594754.1341097
446,1,1,7,946,15,0.1220703125,0.86328125,0.07421875,18.9208984375,-3.60107421875,25.0244140625,108.76835599151035,-93.32910285091494,-331.47868292472,1745594754.1405988
447,1,1,7,961,15,0.33056640625,0.88232421875,0.13720703125,17.4560546875,9.09423828125,42.48046875,87.81212355876785,-87.34160787013136,-311.9208789149767,1745594754.1470985
448,1,1,7,976,15,0.23876953125,0.8232421875,0.150390625,19.59228515625,27.34375,53.22265625,87.81212355876785,-75.36661790856421,-325.4608970755682,1745594754.153694
449,1,1,7,991,15,0.1455078125,0.84765625,0.107421875,18.6767578125,33.99658203125,63.53759765625,102.78086101072677,-60.397880456605286,-319.4431112264165,1745594754.1656363
450,1,1,8,6,15,0.0927734375,0.873046875,0.1142578125,15.5029296875,34.85107421875,76.0498046875,101.28398726553088,-58.901006711409394,-314.9297718395526,1745594754.1776562
451,1,1,8,21,15,0.08544921875,0.912109375,0.1123046875,10.009765625,34.11865234375,90.02685546875,107.27148224631446,-36.44790053347101,-313.42532537726464,1745594754.1840913
452,1,1,8,36,15,0.091796875,0.96435546875,0.08642578125,2.3193359375,32.8369140625,103.08837890625,114.75585097229393,-28.963531807491538,-316.43421830184053,1745594754.1908712
453,1,1,8,51,15,0.130859375,0.9716796875,0.06787109375,-0.6103515625,34.11865234375,114.013671875,119.24647220788161,-9.50417311994493,-317.93866476412853,1745594754.1974292
454,1,1,8,66,15,0.11328125,0.9375,0.07373046875,-1.77001953125,35.888671875,122.314453125,120.74334595307748,2.4708168416222125,-313.42532537726464,1745594754.203844
455,1,1,8,81,15,0.09912109375,0.94482421875,0.044921875,-2.44140625,34.0576171875,128.2958984375,110.26522973670623,30.911418000344167,-319.4431112264165,1745594754.2883453
456,1,1,8,96,15,0.12109375,0.9765625,0.0244140625,-1.40380859375,34.97314453125,134.521484375,105.77460850111856,54.86139792347845,-342.0098081607356,1745594754.2948034
457,1,1,8,111,15,0.087890625,0.99072265625,0.0380859375,3.35693359375,41.748046875,138.18359375,108.76835599151035,72.82388286582916,-331.47868292472,1745594754.4149106
458,1,1,8,126,15,-0.00927734375,1.03515625,0.015625,6.53076171875,49.072265625,138.7939453125,86.31524981357195,107.2519790053347,-323.95645061328025,1745594754.421873
459,1,1,8,141,15,-0.1416015625,1.068359375,-0.083984375,7.14111328125,48.64501953125,137.63427734375,80.32775483278839,137.18945390925256,-335.99202231158387,1745594754.4297512
460,1,1,8,156,15,-0.2041015625,1.0810546875,-0.04443359375,9.46044921875,38.75732421875,137.3291015625,80.32775483278839,137.18945390925256,-335.99202231158387,1745594754.436719
461,1,1,8,171,15,-0.236328125,1.0986328125,0.0302734375,11.1083984375,27.28271484375,136.16943359375,33.924668731715705,191.07690873630472,-352.54093339675126,1745594754.4432368
462,1,1,8,186,15,-0.26123046875,1.10791015625,0.1005859375,9.58251953125,13.85498046875,131.9580078125,32.42779498651982,207.54251993345952,-348.0275940098874,1745594754.4497375
463,1,1,8,201,15,-0.38037109375,1.22216796875,0.17724609375,3.11279296875,7.99560546875,128.0517578125,12.968436298973211,222.51125738541847,-339.00091523615976,1745594754.4562082
464,1,1,8,216,15,-0.3916015625,1.28173828125,0.09326171875,0.06103515625,-0.3662109375,126.89208984375,-9.48466987896518,231.49249985659384,-351.0364869344633,1745594755.0891228
465,1,1,8,231,15,-0.71240234375,1.357421875,-0.14208984375,9.94873046875,22.4609375,102.6611328125,-33.434649802099464,256.939353524924,-351.0364869344633,1745594755.0956762
466,1,1,8,246,15,-1.2587890625,1.67724609375,-0.12841796875,-1.0986328125,-5.859375,91.00341796875,-33.434649802099464,267.41746974129524,-358.55871924590303,1745594755.1021073
467,1,1,8,261,15,-3.716796875,3.91064453125,-1.22021484375,-44.921875,-45.8984375,14.22119140625,-70.85649343199678,283.88308093845006,-349.5320404721753,1745594755.1085525
468,1,1,8,276,15,0.8349609375,0.96826171875,0.822265625,-24.4140625,-79.77294921875,-21.66748046875,-79.83773590317215,282.38620719325417,-351.0364869344633,1745594755.1149774
469,1,1,8,291,15,1.849609375,1.3251953125,0.71630859375,-4.33349609375,-49.072265625,-46.142578125,-60.37837721562554,298.851818390409,-345.01870108531153,1745594755.121529
470,1,1,8,306,15,-0.2060546875,1.28515625,0.0341796875,1.3427734375,-19.10400390625,-19.53125,-55.88775598003785,291.3674496644295,-328.46979000014414,1745594755.1279726
471,1,1,8,321,15,0.318359375,0.9580078125,0.40185546875,16.7236328125,-16.4794921875,-33.50830078125,-54.39088223484197,300.34869213560484,-332.9831293870079,1745594755.3429658
472,1,1,8,336,15,0.34375,0.98876953125,0.0126953125,34.423828125,-3.7841796875,-29.72412109375,-46.9065135088625,300.34869213560484,-348.0275940098874,1745594755.349472
473,1,1,8,351,15,0.19873046875,0.91943359375,0.017578125,30.09033203125,4.21142578125,-33.5693359375,-30.44090231170768,310.8268083519761,-337.4964687738718,1745594755.3559446
474,1,1,8,366,15,0.2978515625,0.99072265625,-0.1591796875,21.42333984375,0.79345703125,-28.99169921875,-45.409639763666604,294.3611971548213,-328.46979000014414,1745594755.3631113
475,1,1,8,381,15,0.21533203125,0.97412109375,-0.14306640625,13.7939453125,6.103515625,-27.34375,-27.44715482131589,298.851818390409,-331.47868292472,1745594755.4530635
476,1,1,8,396,15,0.0458984375,1.00341796875,-0.02880859375,5.79833984375,-2.99072265625,-20.44677734375,-31.937776056903573,301.84556588080073,-331.47868292472,1745594755.4595692
477,1,1,8,411,15,0.13720703125,1.00732421875,0.04248046875,4.57763671875,-13.427734375,-10.68115234375,-21.45965984053232,298.851818390409,-339.00091523615976,1745594755.782822
478,1,1,8,426,15,0.23095703125,0.978515625,0.02490234375,8.30078125,-16.845703125,-3.41796875,-30.44090231170768,307.8330608615844,-332.9831293870079,1745594756.1505103
479,1,1,8,441,15,0.19580078125,1.00927734375,0.02197265625,9.94873046875,-14.404296875,-4.150390625,-22.956533585728216,292.8643234096254,-316.43421830184053,1745594756.1570165
480,1,1,8,456,15,0.2333984375,0.9384765625,0.04443359375,10.68115234375,-9.521484375,-3.90625,-33.434649802099464,300.34869213560484,-323.95645061328025,1745594756.164194
481,1,1,8,471,15,0.212890625,0.98095703125,0.0556640625,12.6953125,-5.06591796875,-4.150390625,-37.925271037687146,309.3299346067803,-339.00091523615976,1745594756.1706662
482,1,1,8,486,15,0.27685546875,0.994140625,-0.0166015625,15.2587890625,-2.38037109375,-5.43212890625,-36.428397292491255,310.8268083519761,-319.4431112264165,1745594756.1771202
483,1,1,8,501,15,0.26025390625,1.01220703125,-0.0966796875,14.6484375,-3.2958984375,-5.67626953125,-22.956533585728216,318.3111770779556,-329.97423646243203,1745594756.1843712
484,1,1,8,516,15,0.20947265625,1.0185546875,-0.111328125,9.765625,-6.89697265625,-4.7607421875,-7.9877961337692875,327.29241954913095,-342.0098081607356,1745594756.1909003
485,1,1,8,531,15,0.22216796875,0.99755859375,-0.0234375,5.7373046875,-9.09423828125,-5.0048828125,-34.931523547295356,304.83931337119253,-328.46979000014414,1745594756.198758
486,1,1,8,546,15,0.2275390625,0.98583984375,-0.03466796875,4.39453125,-9.765625,-6.04248046875,-21.45965984053232,304.83931337119253,-311.9208789149767,1745594756.205916
487,1,1,8,561,15,0.22509765625,1.00341796875,-0.02001953125,2.99072265625,-10.1318359375,-8.544921875,-9.48466987896518,295.8580709000172,-313.42532537726464,1745594756.212329
488,1,1,8,576,15,0.2412109375,0.98486328125,-0.0400390625,2.99072265625,-10.009765625,-11.3525390625,-15.472164859748752,307.8330608615844,-329.97423646243203,1745594756.2187898
489,1,1,8,591,15,0.23779296875,1.00341796875,-0.06396484375,0.54931640625,-11.23046875,-14.22119140625,-31.937776056903573,301.84556588080073,-328.46979000014414,1745594756.2259376
490,1,1,8,606,15,0.216796875,0.994140625,-0.0263671875,-0.54931640625,-12.75634765625,-15.2587890625,-25.950281076120003,300.34869213560484,-329.97423646243203,1745594756.232423
491,1,1,8,621,15,0.1943359375,0.9990234375,-0.05517578125,-2.01416015625,-14.34326171875,-15.80810546875,-31.937776056903573,309.3299346067803,-317.93866476412853,1745594756.2389765
492,1,1,8,636,15,0.193359375,0.99658203125,-0.0498046875,-3.7841796875,-13.7939453125,-17.7001953125,-13.97529111455286,316.8143033327597,-325.4608970755682,1745594756.2472491
493,1,1,8,651,15,0.1484375,0.994140625,-0.05078125,-5.37109375,-12.939453125,-19.22607421875,-21.45965984053232,304.83931337119253,-328.46979000014414,1745594756.253903
494,1,1,8,666,15,0.1630859375,0.97705078125,-0.03564453125,-8.6669921875,-12.6953125,-19.287109375,-31.937776056903573,294.3611971548213,-328.46979000014414,1745594756.2603698
495,1,1,8,681,15,0.16064453125,0.99365234375,-0.0390625,-10.07080078125,-11.3525390625,-17.2119140625,-25.950281076120003,303.34243962599663,-326.9653435378562,1745594756.2675567
496,1,1,8,696,15,0.26806640625,0.990234375,-0.052734375,-13.12255859375,-12.6953125,-17.333984375,-22.956533585728216,300.34869213560484,-332.9831293870079,1745594756.273966
497,1,1,8,711,15,0.2197265625,0.99267578125,-0.0849609375,-13.97705078125,-15.7470703125,-18.6767578125,-12.478417369356967,310.8268083519761,-326.9653435378562,1745594756.280435
498,1,1,8,726,15,0.20947265625,0.98583984375,0.0341796875,-14.5263671875,-17.4560546875,-25.81787109375,-21.45965984053232,301.84556588080073,-320.94755768870436,1745594756.350996
499,1,1,8,741,15,0.212890625,1.0234375,-0.0400390625,-14.404296875,-18.98193359375,-31.005859375,-18.465912350140538,310.8268083519761,-323.95645061328025,1745594756.3574724
500,1,1,8,756,15,0.2529296875,1.017578125,-0.03076171875,-16.29638671875,-20.32470703125,-37.04833984375,-10.981543624161073,312.323682097172,-317.93866476412853,1745594756.364606
501,1,1,8,771,15,0.21533203125,1.00048828125,0.00390625,-14.95361328125,-21.17919921875,-44.61669921875,-3.4971748981816093,307.8330608615844,-323.95645061328025,1745594756.3710651
502,1,1,8,786,15,0.2119140625,1.03857421875,0.01025390625,-13.85498046875,-21.66748046875,-48.2177734375,-10.981543624161073,309.3299346067803,-325.4608970755682,1745594756.3774931
503,1,1,8,801,15,0.16259765625,1.04296875,0.00634765625,-11.29150390625,-20.263671875,-52.55126953125,-6.490922388573395,321.30492456834736,-308.9119859904008,1745594756.3845437
504,1,1,8,816,15,0.16943359375,1.0439453125,-0.01416015625,-10.19287109375,-22.216796875,-56.70166015625,-7.9877961337692875,312.323682097172,-311.9208789149767,1745594756.3911867
505,1,1,8,831,15,0.19482421875,1.05029296875,-0.0146484375,-9.521484375,-21.97265625,-63.1103515625,0.9934463374060689,303.34243962599663,-298.3808607543852,1745594756.4033647
506,1,1,8,846,15,0.205078125,1.05859375,0.0205078125,-9.6435546875,-18.4326171875,-70.73974609375,2.490320082601962,327.29241954913095,-314.9297718395526,1745594756.4104953
507,1,1,8,861,15,0.18212890625,1.087890625,0.00537109375,-10.19287109375,-14.22119140625,-80.38330078125,8.477815063385535,307.8330608615844,-313.42532537726464,1745594756.4169438
508,1,1,8,876,15,0.1533203125,1.1845703125,-0.115234375,-8.97216796875,-11.41357421875,-90.9423828125,14.465310044169106,300.34869213560484,-305.9030930658249,1745594756.4233387
509,1,1,8,891,15,0.25,1.296875,-0.02197265625,-21.42333984375,-20.1416015625,-103.94287109375,21.949678770148566,318.3111770779556,-302.89420014124903,1745594756.4304702
510,1,1,8,906,15,0.29833984375,1.3720703125,0.09814453125,-22.705078125,-20.56884765625,-111.6943359375,20.452805024952678,312.323682097172,-286.34528905608164,1745594756.436903
511,1,1,8,921,15,0.306640625,1.28466796875,0.26025390625,-20.56884765625,-14.0380859375,-126.5869140625,35.421542476911604,300.34869213560484,-308.9119859904008,1745594756.4432933
512,1,1,8,936,15,0.494140625,1.34228515625,0.20654296875,-3.662109375,1.0986328125,-143.37158203125,35.421542476911604,295.8580709000172,-295.3719678298093,1745594756.4517064
513,1,1,8,951,15,0.4130859375,1.4892578125,0.189453125,-0.6103515625,9.70458984375,-159.97314453125,33.924668731715705,301.84556588080073,-301.38975367896103,1745594756.4582725
514,1,1,8,966,15,0.40478515625,1.59814453125,0.15625,16.41845703125,13.00048828125,-171.93603515625,41.40903745769517,294.3611971548213,-304.398646603537,1745594756.5637116
515,1,1,8,981,15,0.32373046875,1.62060546875,0.2216796875,20.69091796875,10.498046875,-179.0771484375,50.390279928870534,282.38620719325417,-295.3719678298093,1745594756.5704217
516,1,1,8,996,15,0.78271484375,1.6953125,0.14501953125,35.7666015625,15.9912109375,-191.650390625,60.86839614524178,282.38620719325417,-289.35418198065753,1745594756.5768821
517,1,1,9,11,15,0.3427734375,1.35595703125,-0.0458984375,43.5791015625,33.8134765625,-182.861328125,59.3715224000459,283.88308093845006,-293.86752136752136,1745594756.583704
518,1,1,9,26,15,-0.24951171875,1.40771484375,-0.2958984375,35.09521484375,44.0673828125,-165.283203125,80.32775483278839,273.4049647220788,-301.38975367896103,1745594756.6343193
519,1,1,9,41,15,-0.19873046875,1.26708984375,-0.43017578125,13.00048828125,21.05712890625,-152.83203125,77.3340073423966,262.92684850570754,-296.87641429209725,1745594756.6408222
520,1,1,9,56,15,-0.56005859375,1.044921875,-0.30224609375,19.83642578125,19.4091796875,-143.310546875,66.85589112602536,268.91434348649113,-304.398646603537,1745594756.6472695
521,1,1,9,71,15,-0.37646484375,0.8095703125,-0.28076171875,14.95361328125,-2.99072265625,-118.46923828125,60.86839614524178,274.9018384672747,-295.3719678298093,1745594756.6551511
522,1,1,9,86,15,0.03662109375,0.58447265625,-0.28271484375,15.0146484375,-23.62060546875,-85.3271484375,60.86839614524178,285.37995468364596,-308.9119859904008,1745594756.6615918
523,1,1,9,101,15,0.14111328125,0.56884765625,-0.2109375,36.43798828125,-11.04736328125,-62.98828125,53.38402741926232,277.89558595766647,-308.9119859904008,1745594756.6994884
524,1,1,9,116,15,0.03955078125,0.1953125,-0.30322265625,1.89208984375,-47.7294921875,-40.46630859375,53.38402741926232,271.9080909768829,-313.42532537726464,1745594756.7073762
525,1,1,9,131,15,0.0869140625,0.25830078125,-0.134765625,-1.8310546875,-54.5654296875,-14.7705078125,27.937173750932143,280.8893334480583,-311.9208789149767,1745594756.7145104
526,1,1,9,146,15,0.21826171875,0.5849609375,-0.0048828125,-11.77978515625,-53.89404296875,23.681640625,23.44655251534446,294.3611971548213,-304.398646603537,1745594756.7209802
527,1,1,9,161,15,0.27001953125,0.1904296875,0.0166015625,-13.671875,-45.166015625,52.55126953125,2.490320082601962,301.84556588080073,-304.398646603537,1745594756.733276
528,1,1,9,176,15,0.2548828125,0.3486328125,-0.02099609375,-14.5263671875,-26.55029296875,82.45849609375,-30.44090231170768,307.8330608615844,-298.3808607543852,1745594756.7397544
529,1,1,9,191,15,0.17919921875,0.40771484375,-0.0732421875,-13.36669921875,-3.41796875,109.619140625,-51.39713474445018,328.78929329432685,-305.9030930658249,1745594756.746211
530,1,1,9,206,15,0.06591796875,0.486328125,-0.06005859375,-13.18359375,10.43701171875,136.23046875,-57.38462972523375,339.2674095106981,-295.3719678298093,1745594756.760229
531,1,1,9,221,15,0.0634765625,0.5,0.00048828125,-12.51220703125,18.37158203125,160.2783203125,-108.2783370618941,349.7455257270693,-313.42532537726464,1745594756.8177705
532,1,1,9,236,15,0.0634765625,0.49609375,0.02685546875,-9.09423828125,18.98193359375,178.40576171875,-151.687675672575,384.1736218665749,-311.9208789149767,1745594756.8242693
533,1,1,9,251,15,0.1337890625,0.59033203125,0.04443359375,-6.9580078125,19.34814453125,191.22314453125,-201.08450926403944,373.69550565020364,-320.94755768870436,1745594756.8307378
534,1,1,9,266,15,0.08935546875,0.75048828125,0.02099609375,-3.72314453125,22.3388671875,200.5615234375,-228.02823667756553,382.676748121379,-323.95645061328025,1745594756.8379576
535,1,1,9,281,15,-0.01708984375,0.99755859375,0.01171875,-2.99072265625,22.03369140625,209.16748046875,-296.8844289565766,384.1736218665749,-314.9297718395526,1745594756.8443696
536,1,1,9,296,15,-0.07666015625,1.20849609375,0.00537109375,-1.46484375,18.61572265625,214.66064453125,-337.30002007686574,378.1861268857913,-319.4431112264165,1745594756.850816
537,1,1,9,311,15,-0.08642578125,1.35546875,0.048828125,1.15966796875,21.30126953125,218.93310546875,-428.60931853381516,384.1736218665749,-342.0098081607356,1745594756.8591568
538,1,1,9,326,15,-0.1181640625,1.6728515625,0.06640625,-2.13623046875,30.70068359375,218.44482421875,-436.09368725979465,363.2173894338324,-325.4608970755682,1745594756.8656132
539,1,1,9,341,15,-0.2607421875,1.4306640625,0.07568359375,-0.67138671875,40.83251953125,209.65576171875,-500.459258303218,328.78929329432685,-326.9653435378562,1745594756.872274
540,1,1,9,356,15,-0.08154296875,1.345703125,0.1796875,-3.35693359375,35.888671875,198.42529296875,-572.3091980726209,271.9080909768829,-351.0364869344633,1745594756.8796108
541,1,1,9,371,15,-0.1640625,1.34716796875,0.021484375,-4.638671875,42.66357421875,184.63134765625,-593.2654305053634,246.46123730855274,-358.55871924590303,1745594756.8860781
542,1,1,9,386,15,-0.20849609375,1.462890625,-0.0712890625,-5.126953125,57.2509765625,175.537109375,-624.6997791544771,195.56752997189238,-358.55871924590303,1745594756.8926325
543,1,1,9,401,15,-0.369140625,1.4443359375,-0.119140625,-6.34765625,57.55615234375,156.494140625,-641.1653903516319,162.63630757758276,-384.13430910479815,1745594756.8999078
544,1,1,9,416,15,-0.453125,1.40185546875,-0.07421875,-1.77001953125,57.0068359375,148.62060546875,-665.1153702747663,98.27073653415934,-379.62096971793426,1745594756.907692
545,1,1,9,431,15,-0.4619140625,1.3271484375,-0.072265625,1.220703125,49.13330078125,137.0849609375,-680.0841077267252,72.82388286582916,-363.07205863276687,1745594756.9141204
546,1,1,9,446,15,-0.484375,1.2666015625,-0.07275390625,0.30517578125,37.353515625,119.873046875,-690.5622239430965,5.464564332013994,-397.6743272653896,1745594756.9212787
547,1,1,9,461,15,-0.591796875,1.25,0.0341796875,2.5634765625,24.47509765625,101.318359375,-683.077855217117,-12.497920610336719,-384.13430910479815,1745594756.9277594
548,1,1,9,476,15,-0.57861328125,1.34716796875,-0.033203125,9.70458984375,19.59228515625,84.716796875,-687.5684764527047,-58.901006711409394,-390.15209495394987,1745594756.9341736
549,1,1,9,491,15,-0.75341796875,1.228515625,0.1142578125,-0.67138671875,1.708984375,57.861328125,-698.0465926690758,-72.37287041817243,-394.66543434081376,1745594756.9413085
550,1,1,9,506,15,-0.8876953125,1.193359375,0.10107421875,2.9296875,-12.3291015625,26.3671875,-692.0590976882922,-106.80096655767797,-409.7098989636932,1745594756.9529486
551,1,1,9,521,15,-1.0185546875,1.12109375,-0.046875,3.47900390625,-28.6865234375,-13.61083984375,-702.5372139046635,-96.3228503413067,-399.1787737276776,1745594756.9613326
552,1,1,9,536,15,-1.91796875,2.64599609375,0.30322265625,-92.28515625,-62.43896484375,1.953125,-723.4934463374061,-117.27908277404921,-399.1787737276776,1745594756.9678235
553,1,1,9,551,15,2.35595703125,0.94677734375,0.50439453125,-24.23095703125,10.25390625,25.20751953125,-720.4996988470143,-109.79471404806975,-399.1787737276776,1745594756.9744353
554,1,1,9,566,15,0.15185546875,1.10791015625,-0.140625,-2.62451171875,1.46484375,-48.03466796875,-726.4871938277979,-90.33535536052314,-387.14320202937404,1745594756.9817402
555,1,1,9,581,15,-0.13330078125,0.99853515625,0.83203125,5.2490234375,1.89208984375,-27.52685546875,-723.4934463374061,-73.86974416336832,-382.62986264251015,1745594757.0258937
556,1,1,9,596,15,0.423828125,0.96923828125,0.04443359375,21.728515625,-15.625,-21.6064453125,-726.4871938277979,-82.85098663454367,-384.13430910479815,1745594757.032524
557,1,1,9,611,15,0.3154296875,0.9599609375,0.0,23.92578125,-4.45556640625,-26.7333984375,-717.5059513566225,-73.86974416336832,-391.65654141623787,1745594757.1084447
558,1,1,9,626,15,0.4453125,0.92626953125,-0.12451171875,16.2353515625,3.5400390625,-25.08544921875,-719.0028251018184,-61.894754201801184,-387.14320202937404,1745594757.1148798
559,1,1,9,641,15,0.46435546875,0.9326171875,-0.18115234375,9.46044921875,12.5732421875,-28.13720703125,-711.5184563758388,-82.85098663454367,-394.66543434081376,1745594757.1220288
560,1,1,9,656,15,0.34814453125,0.9384765625,-0.1552734375,0.30517578125,12.939453125,-31.1279296875,-710.021582630643,-70.87599667297654,-409.7098989636932,1745594757.1284952
561,1,1,9,671,15,0.2177734375,1.0185546875,-0.07177734375,-6.53076171875,-0.732421875,-31.79931640625,-716.0090776114266,-55.907259221017604,-411.21434542598115,1745594757.1349065
562,1,1,9,686,15,0.21484375,1.01220703125,0.01953125,-8.056640625,-16.90673828125,-26.7333984375,-710.021582630643,-57.4041329662135,-417.23213127513293,1745594757.1520054
563,1,1,9,701,15,0.2333984375,1.01513671875,0.052734375,-4.2724609375,-19.1650390625,-23.8037109375,-717.5059513566225,-57.4041329662135,-396.1698808031017,1745594757.1768074
564,1,1,9,716,15,0.25634765625,1.0205078125,0.0205078125,-0.54931640625,-16.6015625,-19.22607421875,-721.9965725922102,-55.907259221017604,-405.1965595768294,1745594757.1837406
565,1,1,9,731,15,0.27685546875,1.01416015625,0.03857421875,2.0751953125,-10.986328125,-16.6015625,-713.0153301210347,-46.926016749842255,-409.7098989636932,1745594757.216793
566,1,1,9,746,15,0.310546875,1.009765625,0.0966796875,4.7607421875,-5.2490234375,-17.27294921875,-732.4746888085814,-45.429143004646356,-397.6743272653896,1745594757.2236214
567,1,1,9,761,15,0.35400390625,0.95703125,0.03173828125,9.21630859375,-1.64794921875,-19.71435546875,-719.0028251018184,-34.95102678827511,-387.14320202937404,1745594757.2301152
568,1,1,9,776,15,0.28271484375,1.00830078125,-0.056640625,8.1787109375,-0.732421875,-21.8505859375,-707.0278351402512,-46.926016749842255,-409.7098989636932,1745594757.2627757
569,1,1,9,791,15,0.3173828125,0.9560546875,-0.05712890625,3.96728515625,-3.2958984375,-22.5830078125,-716.0090776114266,-34.95102678827511,-411.21434542598115,1745594757.270022
570,1,1,9,806,15,0.22314453125,0.9892578125,-0.0380859375,-0.30517578125,-6.591796875,-22.4609375,-729.4809413181896,-19.982289336316178,-414.22323835055704,1745594757.2766185
571,1,1,9,821,15,0.240234375,1.00830078125,-0.0283203125,-4.45556640625,-10.31494140625,-22.94921875,-710.021582630643,-28.963531807491538,-409.7098989636932,1745594757.2830553
572,1,1,9,836,15,0.25927734375,0.970703125,-0.0009765625,-5.615234375,-12.3291015625,-21.8505859375,-717.5059513566225,-28.963531807491538,-420.2410241997088,1745594757.290087
573,1,1,9,851,15,0.2529296875,0.98681640625,-0.02783203125,-6.8359375,-12.451171875,-21.30126953125,-710.021582630643,-18.48541559112029,-420.2410241997088,1745594757.296555
574,1,1,9,866,15,0.21484375,0.97509765625,0.02685546875,-9.46044921875,-12.87841796875,-21.97265625,-719.0028251018184,-12.497920610336719,-418.7365777374209,1745594757.3029575
575,1,1,9,881,15,0.2353515625,0.9951171875,0.0205078125,-11.8408203125,-10.986328125,-22.88818359375,-717.5059513566225,-15.491668100728502,-417.23213127513293,1745594757.3113737
576,1,1,9,896,15,0.244140625,0.98193359375,-0.015625,-14.09912109375,-9.21630859375,-24.59716796875,-717.5059513566225,-8.007299374749035,-406.7010060391173,1745594757.3284214
577,1,1,9,911,15,0.24951171875,1.0029296875,-0.01904296875,-16.41845703125,-8.544921875,-26.4892578125,-726.4871938277979,0.9739430964263179,-408.20545250140526,1745594757.3348362
578,1,1,9,926,15,0.2763671875,0.9658203125,0.0,-18.12744140625,-8.9111328125,-30.2734375,-729.4809413181896,0.9739430964263179,-390.15209495394987,1745594757.3413322
579,1,1,9,941,15,0.2734375,0.95654296875,-0.017578125,-19.22607421875,-7.50732421875,-34.423828125,-720.4996988470143,-3.5166781391613586,-417.23213127513293,1745594757.347863
580,1,1,9,956,15,0.283203125,0.96435546875,-0.00830078125,-20.3857421875,-8.9111328125,-41.68701171875,-721.9965725922102,15.94268054838525,-397.6743272653896,1745594757.3542745
581,1,1,9,971,15,0.29248046875,0.8388671875,-0.06005859375,-12.51220703125,-2.9296875,-54.01611328125,-727.9840675729938,20.433301783972926,-409.7098989636932,1745594757.3870146
582,1,1,9,986,15,0.24755859375,1.251953125,0.15185546875,-17.63916015625,-6.28662109375,-62.56103515625,-707.0278351402512,38.395786726323635,-396.1698808031017,1745594757.393755
583,1,1,10,1,15,0.44384765625,1.1123046875,0.140625,-16.845703125,0.0,-68.7255859375,-719.0028251018184,39.892660471519534,-405.1965595768294,1745594757.400238
584,1,1,10,16,15,0.4970703125,0.95458984375,0.02734375,-11.16943359375,10.80322265625,-89.9658203125,-716.0090776114266,51.86765043308668,-387.14320202937404,1745594757.4246676
585,1,1,10,31,15,0.25146484375,1.09228515625,-0.03271484375,-12.39013671875,9.94873046875,-99.609375,-713.0153301210347,53.364524178282565,-382.62986264251015,1745594757.4316344
586,1,1,10,46,15,0.3408203125,1.01708984375,0.169921875,-15.19775390625,10.68115234375,-108.0322265625,-704.0340876498594,69.83013537543738,-384.13430910479815,1745594757.4380903
587,1,1,10,61,15,0.345703125,0.94482421875,0.08837890625,-10.009765625,7.87353515625,-116.5771484375,-729.4809413181896,93.78011529857167,-384.13430910479815,1745594757.4444926
588,1,1,10,76,15,0.13720703125,1.06787109375,0.03759765625,-10.009765625,-3.41796875,-128.0517578125,-704.0340876498594,98.27073653415934,-390.15209495394987,1745594757.4605842
589,1,1,10,91,15,0.1748046875,1.1279296875,0.080078125,2.13623046875,-19.10400390625,-137.20703125,-696.5497189238799,113.23947398611827,-385.6387555670861,1745594757.4672594
590,1,1,10,106,15,0.234375,1.22607421875,0.005859375,20.44677734375,-22.216796875,-155.1513671875,-696.5497189238799,138.68632765444846,-378.1165232556463,1745594757.489926
591,1,1,10,121,15,0.37744140625,2.076171875,-0.03125,7.87353515625,-33.75244140625,-158.87451171875,-693.5559714334881,155.15193885160326,-379.62096971793426,1745594757.496459
592,1,1,10,136,15,0.44140625,1.87353515625,0.306640625,-1.220703125,-35.33935546875,-177.55126953125,-672.5997390007457,176.1081712843458,-387.14320202937404,1745594757.5028896
593,1,1,10,151,15,0.43115234375,1.88818359375,0.474609375,-0.1220703125,-30.94482421875,-186.58447265625,-654.6372540583949,191.07690873630472,-376.6120767933584,1745594757.5099435
594,1,1,10,166,15,0.671875,1.68994140625,0.5078125,18.24951171875,-28.3203125,-201.72119140625,-642.6622640968278,235.98312109218148,-364.5765050950548,1745594757.5182042
595,1,1,10,181,15,0.49267578125,1.37646484375,0.6064453125,39.9169921875,0.1220703125,-208.0078125,-621.7060316640853,238.97686858257327,-382.62986264251015,1745594757.5246444
596,1,1,10,196,15,0.34228515625,1.48681640625,0.06689453125,35.70556640625,28.80859375,-201.72119140625,-593.2654305053634,274.9018384672747,-382.62986264251015,1745594757.5316405
597,1,1,10,211,15,0.43115234375,1.53173828125,0.29150390625,44.3115234375,148.5595703125,-155.70068359375,-590.2716830149716,271.9080909768829,-375.1076303310705,1745594757.538559
598,1,1,10,226,15,0.01904296875,1.1318359375,-0.07080078125,12.51220703125,122.9248046875,-172.119140625,-548.3592181494867,283.88308093845006,-414.22323835055704,1745594757.5450118
599,1,1,10,241,15,-0.55859375,0.845703125,-0.52685546875,9.3994140625,62.43896484375,-118.71337890625,-552.8498393850743,276.39871221247057,-421.74547066199676,1745594757.5520651
600,1,1,10,256,15,0.50390625,0.3115234375,-0.15185546875,-1.03759765625,-5.7373046875,-75.74462890625,-516.9248695003729,280.8893334480583,-429.2677029734365,1745594757.5585675
601,1,1,10,271,15,2.1884765625,0.28125,0.22314453125,13.97705078125,-23.98681640625,21.8505859375,-513.9311220099811,268.91434348649113,-445.8166140586039,1745594757.5649998
602,1,1,10,286,15,1.29833984375,-0.41259765625,0.21533203125,-3.84521484375,-49.072265625,79.40673828125,-524.4092382263523,262.92684850570754,-435.2854888225883,1745594757.573255
603,1,1,10,301,15,1.5380859375,-0.3828125,0.3349609375,-18.5546875,-111.87744140625,169.61669921875,-519.9186169907647,258.4362272701199,-435.2854888225883,1745594757.5797827
604,1,1,10,316,15,1.39306640625,-0.1552734375,0.3212890625,-17.51708984375,-112.60986328125,235.41259765625,-557.3404606206619,225.50500487581022,-409.7098989636932,1745594757.5862484
605,1,1,10,331,15,1.19482421875,0.1259765625,0.45654296875,-18.4326171875,-90.33203125,295.10498046875,-578.2966930534044,195.56752997189238,-402.1876666522535,1745594757.5933409
606,1,1,10,346,15,0.94921875,0.26171875,0.45654296875,-10.6201171875,-31.06689453125,347.0458984375,-615.7185366833017,155.15193885160326,-394.66543434081376,1745594757.6088963
607,1,1,10,361,15,0.69189453125,0.66162109375,0.359375,-6.4697265625,35.888671875,388.916015625,-641.1653903516319,104.25823151494292,-376.6120767933584,1745594757.615856
608,1,1,10,376,15,0.3154296875,1.12060546875,0.13134765625,-3.662109375,97.96142578125,410.888671875,-657.6310015487867,-8.007299374749035,-396.1698808031017,1745594757.6238518
609,1,1,10,391,15,-1.10205078125,4.79248046875,-0.27099609375,25.0244140625,153.01513671875,418.02978515625,-672.5997390007457,-79.85723914415189,-400.68322018996554,1745594757.6303663
610,1,1,10,406,15,-16.0,6.0908203125,-5.65966796875,-352.84423828125,98.5107421875,-60.24169921875,-662.1216227843745,-193.61964377903976,-379.62096971793426,1745594757.6373167
611,1,1,10,421,15,5.46337890625,-2.94189453125,1.1103515625,442.68798828125,-101.1962890625,-152.34375,-699.5434664142717,-210.08525497619456,-382.62986264251015,1745594757.643732
612,1,1,10,436,15,1.443359375,1.00244140625,0.34716796875,-62.07275390625,-125.9765625,28.01513671875,-648.6497590776114,-162.18529512992598,-439.79882820945215,1745594757.6564426
613,1,1,10,451,15,2.2255859375,1.7724609375,-0.56982421875,-63.3544921875,2.44140625,-109.0087890625,-663.6184965295704,-148.71343142316294,-420.2410241997088,1745594757.6628783
614,1,1,10,466,15,-0.65771484375,1.13623046875,0.4677734375,7.080078125,6.65283203125,-79.1015625,-680.0841077267252,-139.7321889519876,-424.7543635865727,1745594757.669363
615,1,1,10,481,15,-0.10546875,0.96240234375,-0.39306640625,11.53564453125,-32.28759765625,-66.34521484375,-689.0653501979006,-142.72593644237938,-430.77214943572443,1745594757.6815972
616,1,1,10,496,15,0.18798828125,1.26123046875,0.28955078125,29.6630859375,-15.2587890625,-71.35009765625,-672.5997390007457,-111.29158779326563,-424.7543635865727,1745594757.6975744
617,1,1,10,511,15,-0.1279296875,0.9384765625,-0.236328125,28.62548828125,-20.8740234375,-59.5703125,-683.077855217117,-115.78220902885332,-429.2677029734365,1745594757.7092116
618,1,1,10,526,15,-0.25048828125,0.94677734375,-0.09765625,20.81298828125,-12.5732421875,-55.11474609375,-672.5997390007457,-87.34160787013136,-439.79882820945215,1745594757.7162385
619,1,1,10,541,15,-0.32080078125,1.00927734375,0.01025390625,10.80322265625,-10.498046875,-37.4755859375,-663.6184965295704,-84.34786037973959,-441.3032746717401,1745594757.723678
620,1,1,10,556,15,-0.21484375,0.990234375,-0.0166015625,8.60595703125,-4.8828125,-22.39990234375,-663.6184965295704,-91.83222910571904,-430.77214943572443,1745594757.7301824
621,1,1,10,571,15,-0.07958984375,1.04736328125,-0.0556640625,5.859375,0.244140625,-15.9912109375,-642.6622640968278,-66.38537543738886,-436.7899352848762,1745594757.7372854
622,1,1,10,586,15,-0.03173828125,1.00634765625,-0.09033203125,5.7373046875,0.244140625,-14.0380859375,-654.6372540583949,-58.901006711409394,-442.80772113402804,1745594757.7441118
623,1,1,10,601,15,-0.11376953125,1.0390625,-0.06689453125,4.21142578125,0.244140625,-10.1318359375,-645.6560115872196,-63.39162794699707,-447.3210605208918,1745594757.756851
624,1,1,10,616,15,-0.119140625,1.0361328125,-0.0947265625,3.2958984375,-0.54931640625,-5.615234375,-642.6622640968278,-66.38537543738886,-436.7899352848762,1745594757.763293
625,1,1,10,631,15,-0.10498046875,1.02880859375,-0.07373046875,0.8544921875,0.1220703125,-1.64794921875,-645.6560115872196,-63.39162794699707,-441.3032746717401,1745594757.7697458
626,1,1,10,646,15,-0.0771484375,1.04052734375,-0.0732421875,-1.220703125,1.89208984375,0.67138671875,-642.6622640968278,-54.41038547582172,-447.3210605208918,1745594757.7786505
627,1,1,10,661,15,-0.08154296875,1.02099609375,-0.0859375,-3.72314453125,2.0751953125,3.90625,-641.1653903516319,-61.894754201801184,-445.8166140586039,1745594757.785126
628,1,1,10,676,15,-0.07080078125,1.00830078125,-0.0810546875,-6.28662109375,0.3662109375,5.0048828125,-648.6497590776114,-61.894754201801184,-445.8166140586039,1745594758.5339549
629,1,1,10,691,15,-0.11181640625,1.01123046875,-0.07861328125,-9.58251953125,-0.1220703125,8.1787109375,-642.6622640968278,-70.87599667297654,-451.8343999077557,1745594758.5409844
630,1,1,10,706,15,-0.10791015625,1.001953125,-0.05712890625,-11.3525390625,0.3662109375,11.5966796875,-635.1778953708483,-73.86974416336832,-454.84329283233154,1745594758.54995
631,1,1,10,721,15,-0.09814453125,0.984375,-0.01171875,-11.53564453125,-0.6103515625,15.07568359375,-639.668516606436,-66.38537543738886,-454.84329283233154,1745594758.5571487
632,1,1,10,736,15,-0.0908203125,1.001953125,0.0341796875,-9.82666015625,0.8544921875,17.4560546875,-644.1591378420237,-82.85098663454367,-445.8166140586039,1745594758.5748363
633,1,1,10,751,15,-0.09375,1.001953125,0.01806640625,-6.8359375,1.220703125,19.83642578125,-642.6622640968278,-66.38537543738886,-451.8343999077557,1745594758.5817902
634,1,1,10,766,15,-0.095703125,1.01806640625,0.02587890625,-5.06591796875,1.40380859375,23.5595703125,-650.1466328228073,-84.34786037973959,-457.8521857569075,1745594758.588289
635,1,1,10,781,15,-0.07763671875,1.0224609375,-0.03662109375,-3.41796875,0.244140625,26.2451171875,-650.1466328228073,-102.31034532209028,-451.8343999077557,1745594758.5972264
636,1,1,10,796,15,-0.0390625,1.02294921875,-0.05908203125,-3.41796875,-1.77001953125,26.06201171875,-657.6310015487867,-96.3228503413067,-457.8521857569075,1745594758.603669
637,1,1,10,811,15,0.0048828125,0.9921875,-0.0322265625,-5.2490234375,-4.45556640625,24.658203125,-653.140380313199,-91.83222910571904,-457.8521857569075,1745594758.610139
638,1,1,10,826,15,0.05517578125,1.025390625,-0.06982421875,-7.87353515625,-6.28662109375,20.99609375,-671.1028652555499,-102.31034532209028,-451.8343999077557,1745594758.617567
639,1,1,10,841,15,0.0654296875,1.00439453125,-0.0791015625,-10.31494140625,-6.65283203125,15.7470703125,-671.1028652555499,-102.31034532209028,-447.3210605208918,1745594758.6240358
640,1,1,10,856,15,0.05908203125,1.00927734375,-0.0595703125,-15.19775390625,-9.8876953125,9.3994140625,-665.1153702747663,-100.81347157689439,-435.2854888225883,1745594758.630539
641,1,1,10,871,15,0.1162109375,1.0234375,-0.00048828125,-16.7236328125,-13.73291015625,2.38037109375,-662.1216227843745,-108.29784030287387,-435.2854888225883,1745594758.8060834
642,1,1,10,886,15,0.08740234375,1.0205078125,0.021484375,-15.380859375,-14.16015625,-4.69970703125,-672.5997390007457,-111.29158779326563,-429.2677029734365,1745594759.75164
643,1,1,10,901,15,0.029296875,0.9990234375,0.03466796875,-13.671875,-14.2822265625,-10.498046875,-674.0966127459416,-88.83848161532725,-447.3210605208918,1745594759.7746437
644,1,1,10,916,15,0.041015625,1.04150390625,0.05615234375,-11.962890625,-15.19775390625,-15.5029296875,-669.605991510354,-108.29784030287387,-432.27659589801243,1745594759.791764
645,1,1,10,931,15,0.0908203125,1.13525390625,0.02197265625,-10.19287109375,-15.93017578125,-22.216796875,-680.0841077267252,-105.30409281248207,-421.74547066199676,1745594759.7982717
646,1,1,10,946,15,0.1708984375,1.25927734375,-0.1513671875,-12.02392578125,-15.56396484375,-33.5693359375,-678.5872339815293,-106.80096655767797,-433.7810423603004,1745594759.8056018
647,1,1,10,961,15,0.0419921875,1.0732421875,-0.04345703125,-12.451171875,-19.4091796875,-46.32568359375,-687.5684764527047,-79.85723914415189,-418.7365777374209,1745594759.814077
648,1,1,10,976,15,0.07080078125,1.2021484375,0.1240234375,-14.09912109375,-24.658203125,-50.35400390625,-672.5997390007457,-87.34160787013136,-432.27659589801243,1745594759.8214808
649,1,1,10,991,15,0.1953125,1.1962890625,0.03515625,-12.451171875,-24.5361328125,-53.7109375,-689.0653501979006,-73.86974416336832,-444.312167596316,1745594759.827992
650,1,1,11,6,15,0.14208984375,1.18798828125,0.1328125,-10.19287109375,-24.23095703125,-61.95068359375,-680.0841077267252,-64.88850169219297,-429.2677029734365,1745594759.8344326
651,1,1,11,21,15,0.130859375,1.1884765625,0.1318359375,-8.60595703125,-20.81298828125,-70.9228515625,-665.1153702747663,-58.901006711409394,-421.74547066199676,1745594759.8416736
652,1,1,11,36,15,0.10791015625,1.2099609375,0.1083984375,-5.92041015625,-18.61572265625,-78.06396484375,-687.5684764527047,-55.907259221017604,-421.74547066199676,1745594759.8482103
653,1,1,11,51,15,0.109375,1.1767578125,0.1416015625,-2.74658203125,-17.7001953125,-88.134765625,-660.6247490391786,-33.454153043079216,-436.7899352848762,1745594759.8546417
654,1,1,11,66,15,0.20849609375,1.2509765625,0.1513671875,1.46484375,-14.2822265625,-97.412109375,-654.6372540583949,-12.497920610336719,-435.2854888225883,1745594760.6456666
655,1,1,11,81,15,0.30419921875,1.2314453125,0.13427734375,6.04248046875,-6.2255859375,-108.45947265625,-651.6435065680032,5.464564332013994,-421.74547066199676,1745594760.652109
656,1,1,11,96,15,0.26318359375,1.1552734375,0.1376953125,12.75634765625,8.056640625,-118.10302734375,-657.6310015487867,9.95518556760167,-412.7187918882691,1745594760.6585686
657,1,1,11,111,15,0.03515625,1.1689453125,-0.00244140625,13.916015625,11.77978515625,-122.61962890625,-641.1653903516319,36.898912981127744,-442.80772113402804,1745594760.665652
658,1,1,11,126,15,-0.09033203125,1.23876953125,-0.0625,11.71875,20.99609375,-116.2109375,-620.2091579188894,39.892660471519534,-421.74547066199676,1745594760.6734664
659,1,1,11,141,15,-0.0966796875,1.10302734375,-0.0771484375,4.08935546875,31.79931640625,-109.619140625,-602.2466729765387,44.38328170710721,-442.80772113402804,1745594760.6871762
660,1,1,11,156,15,-0.1728515625,1.0390625,-0.203125,-1.40380859375,35.0341796875,-104.18701171875,-606.7372942121265,71.32700912063329,-423.2499171242847,1745594760.6936421
661,1,1,11,171,15,-0.22802734375,1.0810546875,-0.208984375,-4.0283203125,42.66357421875,-104.736328125,-600.7497992313428,63.84264039465382,-441.3032746717401,1745594760.7001312
662,1,1,11,186,15,-0.64599609375,1.07958984375,-0.15283203125,-6.591796875,28.74755859375,-104.248046875,-605.2404204669306,72.82388286582916,-442.80772113402804,1745594760.761799
663,1,1,11,201,15,-0.38525390625,1.072265625,-0.22705078125,-9.09423828125,13.97705078125,-97.83935546875,-578.2966930534044,89.28949406298399,-444.312167596316,1745594760.7689004
664,1,1,11,216,15,-0.2265625,1.00537109375,-0.20947265625,-11.04736328125,5.67626953125,-88.5009765625,-570.812324327425,90.78636780817989,-439.79882820945215,1745594760.7776103
665,1,1,11,231,15,-0.18896484375,0.9052734375,-0.20654296875,-14.892578125,5.9814453125,-79.28466796875,-591.7685567601675,93.78011529857167,-448.8255069831798,1745594760.7846215
666,1,1,11,246,15,-0.16259765625,0.68408203125,-0.11962890625,1.40380859375,16.90673828125,-67.68798828125,-564.8248293466414,92.28324155337577,-426.2588100488606,1745594760.7913327
667,1,1,11,261,15,0.060546875,0.548828125,-0.19384765625,15.5029296875,7.62939453125,-58.349609375,-573.8060718178168,101.26448402455115,-453.33884637004365,1745594760.797794
668,1,1,11,276,15,-0.03369140625,0.70458984375,-0.04638671875,-8.85009765625,-18.85986328125,-24.90234375,-555.8435868754661,116.23322147651005,-439.79882820945215,1745594760.8048015
669,1,1,11,291,15,0.0732421875,0.47021484375,-0.0693359375,-3.60107421875,-28.3203125,2.99072265625,-564.8248293466414,113.23947398611827,-447.3210605208918,1745594760.8112714
670,1,1,11,306,15,0.052734375,0.5458984375,-0.10205078125,-7.568359375,-23.74267578125,22.15576171875,-573.8060718178168,111.74260024092237,-456.34773929461954,1745594760.81771
671,1,1,11,321,15,0.0224609375,0.60546875,-0.0732421875,-12.0849609375,-27.587890625,41.68701171875,-570.812324327425,111.74260024092237,-429.2677029734365,1745594761.3837407
672,1,1,11,336,15,0.0517578125,0.56787109375,-0.0595703125,-11.8408203125,-30.029296875,61.767578125,-561.8310818562496,102.76135776974702,-423.2499171242847,1745594761.3923182
673,1,1,11,351,15,0.05712890625,0.58642578125,-0.0390625,-9.82666015625,-31.982421875,79.40673828125,-554.3467131302702,92.28324155337577,-420.2410241997088,1745594761.414859
674,1,1,11,366,15,0.07861328125,0.671875,-0.05810546875,-7.75146484375,-30.21240234375,96.0693359375,-558.8373343658578,87.79262031778809,-424.7543635865727,1745594761.4220376
675,1,1,11,381,15,0.01171875,0.7939453125,-0.04150390625,-8.97216796875,-25.2685546875,112.1826171875,-572.3091980726209,78.81137784661274,-423.2499171242847,1745594761.4285636
676,1,1,11,396,15,0.0546875,0.83544921875,-0.0380859375,-9.09423828125,-23.681640625,127.197265625,-591.7685567601675,72.82388286582916,-424.7543635865727,1745594761.4350398
677,1,1,11,411,15,0.14892578125,0.85595703125,0.0078125,-4.5166015625,-15.9912109375,139.70947265625,-578.2966930534044,38.395786726323635,-417.23213127513293,1745594761.7035484
678,1,1,11,426,15,0.201171875,0.869140625,0.0595703125,2.9296875,-1.77001953125,149.4140625,-593.2654305053634,9.95518556760167,-402.1876666522535,1745594761.7102702
679,1,1,11,441,15,0.12890625,0.90380859375,0.0615234375,5.7373046875,13.3056640625,156.3720703125,-594.7623042505593,-12.497920610336719,-418.7365777374209,1745594761.7167659
680,1,1,11,456,15,0.10400390625,0.93505859375,0.0361328125,6.28662109375,23.62060546875,166.9921875,-581.2904405437962,-27.466658062295643,-429.2677029734365,1745594761.7231932
681,1,1,11,471,15,0.1689453125,1.03515625,0.0234375,3.84521484375,35.94970703125,178.5888671875,-591.7685567601675,-55.907259221017604,-424.7543635865727,1745594761.7297485
