Processed,Time(h),Time(m),Time(s),Time(ms),Delt,AccX,AccY,AccZ,GyroX,GyroY,GyroZ,MagX,MagY,MagZ,PCTimestamp
1,1,1,1,269,3661269,-0.138671875,0.99462890625,-0.033203125,-1.89208984375,0.244140625,-2.74658203125,-40.91901852807893,-407.67258934205245,158.97086378115046,1745594602.168556
2,1,1,1,284,15,-0.15869140625,0.99072265625,-0.02734375,-1.77001953125,-0.06103515625,-2.99072265625,-30.44090231170768,-418.1507055584236,172.51088194174199,1745594602.175461
3,1,1,1,299,15,-0.13720703125,0.98291015625,-0.05126953125,-1.77001953125,-1.28173828125,-2.62451171875,-42.41589227327482,-412.1632105776401,157.4664173188625,1745594602.1819048
4,1,1,1,314,15,-0.14208984375,0.98779296875,-0.0341796875,-2.197265625,-1.89208984375,-2.9296875,-40.91901852807893,-403.18196810646475,161.97975670572634,1745594602.1885788
5,1,1,1,329,15,-0.1513671875,0.9794921875,-0.044921875,-2.25830078125,-1.89208984375,-2.9296875,-51.39713474445018,-403.18196810646475,172.51088194174199,1745594602.1951349
6,1,1,1,344,15,-0.16015625,0.98779296875,-0.02392578125,-2.50244140625,-2.685546875,-2.74658203125,-52.89400848964607,-401.68509436126885,157.4664173188625,1745594602.201786
7,1,1,1,359,15,-0.1513671875,0.98095703125,-0.03173828125,-2.685546875,-2.3193359375,-2.3193359375,-51.39713474445018,-400.18822061607295,183.04200717775757,1745594603.0868251
8,1,1,1,374,15,-0.1611328125,0.98779296875,-0.0322265625,-2.685546875,-2.01416015625,-2.62451171875,-45.409639763666604,-398.6913468708771,160.4753102434384,1745594603.0938888
9,1,1,1,389,15,-0.15380859375,0.9990234375,-0.02783203125,-2.44140625,-1.89208984375,-2.3193359375,-49.90026099925429,-412.1632105776401,154.4575243942866,1745594603.105755
10,1,1,1,404,15,-0.14892578125,0.99853515625,-0.02294921875,-3.11279296875,-1.52587890625,-2.50244140625,-43.91276601847071,-403.18196810646475,158.97086378115046,1745594603.112173
11,1,1,1,419,15,-0.14306640625,0.994140625,-0.04736328125,-2.86865234375,-1.40380859375,-1.953125,-24.45340733092411,-416.6538318132278,160.4753102434384,1745594603.118715
12,1,1,1,434,15,-0.15869140625,0.99755859375,-0.0302734375,-2.44140625,-1.64794921875,-1.953125,-42.41589227327482,-404.67884185166065,160.4753102434384,1745594603.1253414
13,1,1,1,449,15,-0.14794921875,1.00048828125,-0.02197265625,-2.25830078125,-1.28173828125,-1.8310546875,-54.39088223484197,-403.18196810646475,148.43973854513484,1745594603.131923
14,1,1,1,464,15,-0.15673828125,0.99267578125,-0.01416015625,-1.89208984375,-1.0986328125,-1.64794921875,-55.88775598003785,-409.1694630872483,157.4664173188625,1745594603.1384935
15,1,1,1,479,15,-0.15673828125,1.00146484375,-0.0234375,-1.708984375,-1.3427734375,-1.52587890625,-51.39713474445018,-392.70385189009346,161.97975670572634,1745594603.144915
16,1,1,1,494,15,-0.15869140625,0.99560546875,-0.03369140625,-1.64794921875,-1.03759765625,-1.3427734375,-54.39088223484197,-410.6663368324442,161.97975670572634,1745594603.1671882
17,1,1,1,509,15,-0.14697265625,0.99853515625,-0.03173828125,-1.3427734375,-1.64794921875,-1.64794921875,-46.9065135088625,-413.660084322836,158.97086378115046,1745594603.173606
18,1,1,1,524,15,-0.15673828125,0.9951171875,-0.0107421875,-1.40380859375,-1.52587890625,-1.708984375,-55.88775598003785,-398.6913468708771,174.0153284040299,1745594603.1802986
19,1,1,1,539,15,-0.16162109375,0.9912109375,-0.02294921875,-1.5869140625,-2.01416015625,-2.0751953125,-49.90026099925429,-416.6538318132278,160.4753102434384,1745594603.1867983
20,1,1,1,554,15,-0.14892578125,0.98876953125,-0.0390625,-1.40380859375,-3.11279296875,-2.50244140625,-45.409639763666604,-416.6538318132278,157.4664173188625,1745594603.1935968
21,1,1,1,569,15,-0.15087890625,1.00634765625,-0.02880859375,-1.77001953125,-3.96728515625,-3.0517578125,-45.409639763666604,-412.1632105776401,163.4842031680143,1745594603.200172
22,1,1,1,584,15,-0.15869140625,0.9951171875,-0.03271484375,-1.40380859375,-4.5166015625,-3.5400390625,-46.9065135088625,-418.1507055584236,161.97975670572634,1745594603.2067509
23,1,1,1,599,15,-0.14404296875,1.0068359375,-0.03564453125,-1.3427734375,-4.7607421875,-3.96728515625,-45.409639763666604,-394.20072563528936,157.4664173188625,1745594603.2133427
24,1,1,1,614,15,-0.16015625,1.0146484375,-0.03515625,-1.46484375,-3.72314453125,-3.90625,-60.37837721562554,-409.1694630872483,154.4575243942866,1745594603.2198808
25,1,1,1,629,15,-0.1630859375,1.01171875,-0.0234375,-1.220703125,-2.99072265625,-3.7841796875,-37.925271037687146,-416.6538318132278,163.4842031680143,1745594603.2560554
26,1,1,1,644,15,-0.166015625,1.0009765625,-0.02734375,-1.0986328125,-2.74658203125,-3.41796875,-24.45340733092411,-409.1694630872483,160.4753102434384,1745594603.2625694
27,1,1,1,659,15,-0.1611328125,1.00146484375,-0.029296875,-1.03759765625,-1.8310546875,-3.60107421875,-45.409639763666604,-401.68509436126885,154.4575243942866,1745594603.2692158
28,1,1,1,674,15,-0.15966796875,1.00927734375,-0.00927734375,-1.03759765625,-0.8544921875,-3.90625,-37.925271037687146,-427.1319480295991,160.4753102434384,1745594603.27598
29,1,1,1,689,15,-0.16748046875,0.9892578125,-0.029296875,-1.0986328125,0.18310546875,-4.33349609375,-51.39713474445018,-410.6663368324442,161.97975670572634,1745594603.2841668
30,1,1,1,704,15,-0.171875,0.9892578125,-0.0400390625,-1.28173828125,0.79345703125,-4.39453125,-49.90026099925429,-398.6913468708771,157.4664173188625,1745594603.2910352
31,1,1,1,719,15,-0.1708984375,0.98291015625,-0.046875,-1.40380859375,0.732421875,-4.21142578125,-49.90026099925429,-391.20697814489756,171.006435479454,1745594603.2974744
32,1,1,1,734,15,-0.1796875,0.98681640625,-0.0380859375,-1.5869140625,-0.30517578125,-3.662109375,-61.87525096082143,-413.660084322836,169.50198901716607,1745594603.3045237
33,1,1,1,749,15,-0.18017578125,0.9814453125,-0.04443359375,-1.8310546875,-1.28173828125,-3.11279296875,-43.91276601847071,-421.1444530488154,151.4486314697107,1745594603.3113406
34,1,1,1,764,15,-0.17724609375,0.9912109375,-0.025390625,-2.13623046875,-1.46484375,-2.685546875,-61.87525096082143,-410.6663368324442,161.97975670572634,1745594603.3178017
35,1,1,1,779,15,-0.18359375,0.98486328125,-0.03857421875,-2.44140625,-0.79345703125,-2.25830078125,-52.89400848964607,-398.6913468708771,154.4575243942866,1745594603.5040188
36,1,1,1,794,15,-0.1962890625,0.97265625,-0.02392578125,-2.5634765625,-0.48828125,-1.8310546875,-42.41589227327482,-404.67884185166065,157.4664173188625,1745594603.5112164
37,1,1,1,809,15,-0.1962890625,0.9765625,-0.0361328125,-2.9296875,-0.06103515625,-1.0986328125,-52.89400848964607,-401.68509436126885,160.4753102434384,1745594603.517697
38,1,1,1,824,15,-0.1865234375,0.9853515625,-0.04541015625,-3.0517578125,-0.06103515625,-0.3662109375,-45.409639763666604,-412.1632105776401,154.4575243942866,1745594603.5241148
39,1,1,1,839,15,-0.185546875,0.9814453125,-0.04541015625,-3.5400390625,-1.220703125,0.48828125,-51.39713474445018,-413.660084322836,158.97086378115046,1745594603.5314581
40,1,1,1,854,15,-0.17919921875,0.98486328125,-0.03173828125,-3.23486328125,-1.77001953125,1.708984375,-54.39088223484197,-407.67258934205245,169.50198901716607,1745594603.5506475
41,1,1,1,869,15,-0.17822265625,0.98486328125,-0.0107421875,-3.23486328125,-1.40380859375,2.01416015625,-52.89400848964607,-401.68509436126885,160.4753102434384,1745594603.557131
42,1,1,1,884,15,-0.17236328125,0.98193359375,-0.00732421875,-3.11279296875,-0.6103515625,2.197265625,-54.39088223484197,-403.18196810646475,158.97086378115046,1745594603.5635567
43,1,1,1,899,15,-0.18017578125,0.99267578125,-0.01708984375,-2.99072265625,-0.3662109375,2.13623046875,-51.39713474445018,-400.18822061607295,166.49309609259018,1745594603.57063
44,1,1,1,914,15,-0.17724609375,0.9990234375,-0.021484375,-3.0517578125,-0.67138671875,2.01416015625,-49.90026099925429,-401.68509436126885,154.4575243942866,1745594603.5771163
45,1,1,1,929,15,-0.1669921875,1.00390625,-0.0341796875,-2.86865234375,-1.77001953125,2.197265625,-40.91901852807893,-413.660084322836,142.42195269598304,1745594603.5835385
46,1,1,1,944,15,-0.1728515625,0.99658203125,-0.03125,-3.11279296875,-2.50244140625,2.38037109375,-43.91276601847071,-400.18822061607295,161.97975670572634,1745594603.597515
47,1,1,1,959,15,-0.162109375,0.99462890625,-0.041015625,-3.2958984375,-3.23486328125,2.50244140625,-52.89400848964607,-409.1694630872483,171.006435479454,1745594603.6039386
48,1,1,1,974,15,-0.15478515625,0.9833984375,-0.02197265625,-3.35693359375,-4.8828125,2.3193359375,-55.88775598003785,-416.6538318132278,167.99754255487815,1745594603.6329434
49,1,1,1,989,15,-0.15087890625,0.99658203125,-0.017578125,-3.41796875,-5.43212890625,1.89208984375,-43.91276601847071,-407.67258934205245,172.51088194174199,1745594603.6416013
50,1,1,2,4,15,-0.16015625,0.9892578125,-0.0048828125,-3.11279296875,-4.94384765625,1.28173828125,-43.91276601847071,-410.6663368324442,166.49309609259018,1745594603.648102
51,1,1,2,19,15,-0.1748046875,0.98388671875,-0.009765625,-3.35693359375,-4.94384765625,1.220703125,-25.950281076120003,-410.6663368324442,161.97975670572634,1745594603.6560686
52,1,1,2,34,15,-0.1650390625,0.9970703125,0.0048828125,-3.173828125,-3.96728515625,0.91552734375,-54.39088223484197,-410.6663368324442,161.97975670572634,1745594603.6625695
53,1,1,2,49,15,-0.1611328125,0.9853515625,-0.00146484375,-3.23486328125,-2.8076171875,0.6103515625,-42.41589227327482,-401.68509436126885,171.006435479454,1745594603.6690269
54,1,1,2,64,15,-0.16259765625,0.9892578125,-0.0078125,-3.2958984375,-1.3427734375,0.1220703125,-45.409639763666604,-398.6913468708771,160.4753102434384,1745594603.6814759
55,1,1,2,79,15,-0.15966796875,0.99755859375,-0.04052734375,-3.23486328125,-0.42724609375,-0.1220703125,-49.90026099925429,-409.1694630872483,157.4664173188625,1745594603.6881945
56,1,1,2,94,15,-0.16455078125,0.99169921875,-0.03125,-3.5400390625,-1.28173828125,-0.18310546875,-43.91276601847071,-410.6663368324442,166.49309609259018,1745594604.5731683
57,1,1,2,109,15,-0.16552734375,0.99951171875,-0.0234375,-3.662109375,-2.9296875,0.06103515625,-42.41589227327482,-412.1632105776401,154.4575243942866,1745594604.7925434
58,1,1,2,124,15,-0.16015625,1.00537109375,-0.01953125,-3.662109375,-3.5400390625,0.1220703125,-51.39713474445018,-413.660084322836,145.43084562055893,1745594604.7990506
59,1,1,2,139,15,-0.162109375,0.9990234375,-0.00537109375,-3.41796875,-3.60107421875,0.244140625,-46.9065135088625,-410.6663368324442,180.03311425318168,1745594604.8113713
60,1,1,2,154,15,-0.15380859375,1.00537109375,-0.0048828125,-2.9296875,-3.41796875,-0.244140625,-52.89400848964607,-412.1632105776401,167.99754255487815,1745594604.8253953
61,1,1,2,169,15,-0.15673828125,0.9990234375,-0.0048828125,-3.0517578125,-3.7841796875,-0.6103515625,-46.9065135088625,-410.6663368324442,158.97086378115046,1745594604.8318567
62,1,1,2,184,15,-0.1396484375,1.00830078125,0.0087890625,-2.50244140625,-3.173828125,-0.91552734375,-37.925271037687146,-416.6538318132278,160.4753102434384,1745594604.8383324
63,1,1,2,199,15,-0.16259765625,0.99658203125,0.01416015625,-2.197265625,-2.44140625,-1.15966796875,-37.925271037687146,-409.1694630872483,163.4842031680143,1745594604.8454823
64,1,1,2,214,15,-0.158203125,0.9853515625,0.025390625,-1.8310546875,-1.28173828125,-1.708984375,-52.89400848964607,-409.1694630872483,163.4842031680143,1745594604.851928
65,1,1,2,229,15,-0.16845703125,1.00341796875,-0.00634765625,-2.01416015625,-0.79345703125,-2.01416015625,-51.39713474445018,-410.6663368324442,155.96197085657457,1745594604.8583987
66,1,1,2,244,15,-0.1728515625,0.98388671875,0.0048828125,-1.8310546875,-1.89208984375,-2.0751953125,-45.409639763666604,-412.1632105776401,157.4664173188625,1745594604.8769078
67,1,1,2,259,15,-0.1416015625,1.00537109375,-0.021484375,-1.77001953125,-4.21142578125,-2.197265625,-33.434649802099464,-418.1507055584236,166.49309609259018,1745594604.8833542
68,1,1,2,274,15,-0.14794921875,0.99853515625,-0.01513671875,-2.0751953125,-3.23486328125,-2.74658203125,-42.41589227327482,-404.67884185166065,157.4664173188625,1745594605.4349887
69,1,1,2,289,15,-0.14208984375,0.9892578125,-0.0087890625,-1.77001953125,-2.25830078125,-3.90625,-42.41589227327482,-401.68509436126885,154.4575243942866,1745594605.6320243
70,1,1,2,304,15,-0.14306640625,1.01513671875,-0.013671875,-1.64794921875,-3.173828125,-4.45556640625,-51.39713474445018,-403.18196810646475,155.96197085657457,1745594605.6385412
71,1,1,2,319,15,-0.15087890625,1.01708984375,-0.013671875,-2.0751953125,-6.89697265625,-6.65283203125,-57.38462972523375,-410.6663368324442,158.97086378115046,1745594605.6451983
72,1,1,2,334,15,-0.15869140625,1.03564453125,-0.0166015625,-1.77001953125,-9.3994140625,-8.11767578125,-46.9065135088625,-395.69759938048526,151.4486314697107,1745594605.7718508
73,1,1,2,349,15,-0.1630859375,1.041015625,0.01123046875,-1.46484375,-9.033203125,-10.43701171875,-57.38462972523375,-403.18196810646475,158.97086378115046,1745594605.7783303
74,1,1,2,364,15,-0.1611328125,1.052734375,0.00537109375,-1.3427734375,-6.89697265625,-12.5732421875,-49.90026099925429,-409.1694630872483,157.4664173188625,1745594605.7847521
75,1,1,2,379,15,-0.14599609375,1.04736328125,0.00634765625,-1.46484375,-5.9814453125,-14.46533203125,-43.91276601847071,-400.18822061607295,148.43973854513484,1745594605.7972784
76,1,1,2,394,15,-0.1298828125,1.04296875,0.01171875,-1.708984375,-8.7890625,-17.08984375,-54.39088223484197,-395.69759938048526,158.97086378115046,1745594606.4743419
77,1,1,2,409,15,-0.1298828125,1.04150390625,0.04052734375,0.6103515625,-8.1787109375,-19.47021484375,-49.90026099925429,-412.1632105776401,149.94418500742276,1745594606.4808342
78,1,1,2,424,15,-0.126953125,1.0166015625,0.0400390625,1.89208984375,-6.16455078125,-22.3388671875,-64.86899845121322,-413.660084322836,148.43973854513484,1745594606.4872763
79,1,1,2,439,15,-0.13330078125,1.0146484375,0.00439453125,1.77001953125,-4.21142578125,-26.611328125,-69.3596196868009,-413.660084322836,148.43973854513484,1745594606.4948826
80,1,1,2,454,15,-0.1826171875,1.0322265625,0.0029296875,2.50244140625,-3.11279296875,-27.4658203125,-63.37212470601732,-419.6475793036195,160.4753102434384,1745594606.5013576
81,1,1,2,469,15,-0.2119140625,1.05126953125,0.01123046875,1.953125,-5.2490234375,-29.47998046875,-57.38462972523375,-410.6663368324442,145.43084562055893,1745594606.507906
82,1,1,2,484,15,-0.189453125,1.02490234375,0.015625,3.173828125,-5.37109375,-31.1279296875,-49.90026099925429,-409.1694630872483,149.94418500742276,1745594606.5152066
83,1,1,2,499,15,-0.1611328125,1.0400390625,0.052734375,2.50244140625,-2.197265625,-34.36279296875,-66.36587219640911,-398.6913468708771,146.93529208284687,1745594606.5289736
84,1,1,2,514,15,-0.185546875,1.0439453125,0.02783203125,3.96728515625,1.0986328125,-36.2548828125,-75.34711466758446,-400.18822061607295,155.96197085657457,1745594606.5362792
85,1,1,2,529,15,-0.2001953125,1.0322265625,0.0322265625,4.0283203125,2.50244140625,-39.4287109375,-73.85024092238858,-391.20697814489756,154.4575243942866,1745594606.5426888
86,1,1,2,544,15,-0.1787109375,1.0302734375,0.02685546875,4.94384765625,3.84521484375,-41.68701171875,-84.32835713875981,-401.68509436126885,163.4842031680143,1745594606.5630255
87,1,1,2,559,15,-0.23583984375,1.03662109375,0.0126953125,4.638671875,4.150390625,-44.677734375,-70.85649343199678,-401.68509436126885,149.94418500742276,1745594606.5718942
88,1,1,2,574,15,-0.1845703125,1.02294921875,0.009765625,3.84521484375,7.080078125,-49.49951171875,-90.3158521195434,-400.18822061607295,169.50198901716607,1745594606.5784297
89,1,1,2,589,15,-0.20849609375,1.06005859375,0.00146484375,4.5166015625,5.859375,-52.55126953125,-88.81897837434751,-401.68509436126885,149.94418500742276,1745594606.5848444
90,1,1,2,604,15,-0.14892578125,1.083984375,0.00244140625,6.04248046875,4.82177734375,-56.2744140625,-99.29709459071874,-391.20697814489756,154.4575243942866,1745594606.5922353
91,1,1,2,619,15,-0.16748046875,1.0869140625,0.02490234375,7.75146484375,3.0517578125,-60.72998046875,-99.29709459071874,-394.20072563528936,160.4753102434384,1745594606.5988238
92,1,1,2,634,15,-0.1728515625,1.1142578125,0.00390625,8.36181640625,-0.91552734375,-63.3544921875,-114.26583204267767,-410.6663368324442,155.96197085657457,1745594606.6052663
93,1,1,2,649,15,-0.15771484375,1.1513671875,0.04931640625,9.33837890625,-0.3662109375,-65.7958984375,-120.25332702346124,-386.7163569093099,154.4575243942866,1745594606.612376
94,1,1,2,664,15,-0.1513671875,1.28857421875,0.0673828125,10.68115234375,-10.6201171875,-68.115234375,-121.75020076865715,-392.70385189009346,151.4486314697107,1745594606.6189911
95,1,1,2,679,15,-0.01416015625,1.31396484375,0.04248046875,12.63427734375,-17.822265625,-71.044921875,-123.24707451385304,-373.2444932025469,136.40416684683126,1745594606.647546
96,1,1,2,694,15,0.0625,1.22802734375,-0.01123046875,14.83154296875,-15.869140625,-79.833984375,-127.7376957494407,-373.2444932025469,163.4842031680143,1745594606.6551354
97,1,1,2,709,15,-0.10693359375,1.2490234375,0.0,18.24951171875,-11.41357421875,-85.75439453125,-138.21581196581198,-376.2382406929387,143.926399158271,1745594606.66191
98,1,1,2,724,15,-0.2783203125,1.25390625,-0.07958984375,17.4560546875,-19.71435546875,-89.84375,-141.20955945620375,-355.28200826019616,163.4842031680143,1745594606.6684828
99,1,1,2,739,15,-0.3017578125,1.27978515625,-0.2099609375,18.06640625,-29.296875,-92.529296875,-156.17829690816268,-347.7976395342167,139.41305977140715,1745594606.6774397
100,1,1,2,754,15,-0.2333984375,1.259765625,-0.20361328125,18.798828125,-27.9541015625,-94.8486328125,-153.18454941777088,-343.30701829862903,145.43084562055893,1745594606.683865
101,1,1,2,769,15,-0.2548828125,1.19775390625,-0.2734375,18.9208984375,-19.47021484375,-93.56689453125,-148.6939281821832,-344.80389204382493,146.93529208284687,1745594606.770428
102,1,1,2,784,15,-0.35205078125,1.0224609375,-0.2529296875,16.54052734375,-12.0849609375,-91.796875,-169.6501606149257,-340.3132708082373,136.40416684683126,1745594606.7770767
103,1,1,2,799,15,-0.62353515625,0.92578125,-0.3662109375,19.83642578125,0.54931640625,-85.75439453125,-163.66266563414214,-325.3445333562783,131.89082745996743,1745594607.0010133
104,1,1,2,814,15,-0.64599609375,0.91748046875,-0.3134765625,21.1181640625,1.8310546875,-82.275390625,-178.63140308610107,-317.86016463029887,145.43084562055893,1745594607.0081677
105,1,1,2,829,15,-0.55810546875,0.85009765625,-0.28759765625,20.93505859375,-2.99072265625,-69.9462890625,-186.1157718120805,-317.86016463029887,142.42195269598304,1745594607.0146077
106,1,1,2,844,15,-0.4775390625,0.72216796875,-0.26220703125,17.7001953125,-10.3759765625,-56.2744140625,-183.12202432168874,-301.394553433144,128.88193453539154,1745594607.021067
107,1,1,2,859,15,-0.33056640625,0.5615234375,-0.169921875,12.39013671875,-19.1650390625,-37.04833984375,-192.1032667928641,-307.3820484139276,121.3597022239518,1745594607.0282276
108,1,1,2,874,15,0.00390625,0.54833984375,-0.0927734375,6.34765625,-37.29248046875,-20.6298828125,-195.0970142832559,-301.394553433144,143.926399158271,1745594607.0366092
109,1,1,2,889,15,0.1337890625,0.37841796875,-0.14404296875,9.765625,-20.751953125,23.98681640625,-177.13452934090517,-283.43206849079326,143.926399158271,1745594607.0430431
110,1,1,2,904,15,0.369140625,0.47705078125,0.02294921875,8.6669921875,-10.25390625,47.79052734375,-210.0657517352148,-284.9289422359892,134.8997203845433,1745594607.0501957
111,1,1,2,919,15,0.3427734375,0.52880859375,0.09521484375,5.06591796875,1.89208984375,78.125,-204.07825675443127,-284.9289422359892,121.3597022239518,1745594607.1162162
112,1,1,2,934,15,0.23876953125,0.52490234375,0.1455078125,0.42724609375,7.8125,101.37939453125,-178.63140308610107,-263.9727098032467,131.89082745996743,1745594607.1242836
113,1,1,2,949,15,0.1435546875,0.6298828125,0.08349609375,-8.60595703125,13.12255859375,125.79345703125,-172.64390810531748,-262.47583605805085,139.41305977140715,1745594607.132448
114,1,1,2,964,15,0.0205078125,0.58544921875,0.07568359375,-12.39013671875,18.06640625,141.29638671875,-156.17829690816268,-244.5133511157001,128.88193453539154,1745594607.1407263
115,1,1,2,979,15,-0.02783203125,0.6923828125,-0.005859375,-15.869140625,21.3623046875,160.46142578125,-151.687675672575,-247.5070986060919,133.39527392225537,1745594607.1488924
116,1,1,2,994,15,0.0185546875,0.81591796875,0.00634765625,-23.193359375,25.5126953125,181.5185546875,-148.6939281821832,-251.99771984167958,146.93529208284687,1745594607.1616542
117,1,1,3,9,15,0.06298828125,0.8994140625,0.04736328125,-27.28271484375,32.65380859375,201.47705078125,-130.7314432398325,-229.54461366374116,115.34191637480001,1745594607.1681576
118,1,1,3,24,15,0.0595703125,0.97265625,0.07861328125,-30.517578125,45.2880859375,215.087890625,-129.23456949463662,-220.56337119256582,137.9086133091192,1745594607.1746626
119,1,1,3,39,15,-0.025390625,1.029296875,0.08203125,-33.63037109375,55.84716796875,223.08349609375,-105.28458957150232,-211.58212872139046,128.88193453539154,1745594607.186298
120,1,1,3,54,15,-0.10693359375,1.1357421875,0.1005859375,-36.43798828125,56.21337890625,228.6376953125,-103.78771582630642,-181.6446538174726,137.9086133091192,1745594607.1931648
121,1,1,3,69,15,-0.10986328125,1.24560546875,0.06005859375,-37.2314453125,57.2509765625,233.70361328125,-105.28458957150232,-175.65715883668904,122.86414868623974,1745594607.1996543
122,1,1,3,84,15,-0.087890625,1.3779296875,0.0556640625,-39.24560546875,67.138671875,235.107421875,-82.83148339356393,-156.19780014914244,131.89082745996743,1745594607.206092
123,1,1,3,99,15,-0.12353515625,1.56591796875,0.01806640625,-44.73876953125,81.11572265625,236.2060546875,-84.32835713875981,-139.7321889519876,136.40416684683126,1745594607.2126045
124,1,1,3,114,15,-0.1318359375,1.64794921875,-0.0712890625,-49.98779296875,91.9189453125,230.224609375,-75.34711466758446,-138.23531520679174,131.89082745996743,1745594607.2213938
125,1,1,3,129,15,-0.150390625,1.50244140625,-0.1845703125,-55.60302734375,91.85791015625,224.30419921875,-84.32835713875981,-115.78220902885332,125.87304161081563,1745594607.228151
126,1,1,3,144,15,-0.30078125,1.39306640625,-0.1865234375,-55.60302734375,88.68408203125,215.33203125,-79.83773590317215,-102.31034532209028,116.84636283708795,1745594607.23472
127,1,1,3,159,15,-0.419921875,1.33837890625,-0.16650390625,-50.537109375,80.74951171875,204.4677734375,-84.32835713875981,-100.81347157689439,119.85525576166384,1745594607.241374
128,1,1,3,174,15,-0.47705078125,1.38427734375,-0.2041015625,-49.560546875,63.5986328125,187.8662109375,-103.78771582630642,-99.3165978316985,124.36859514852769,1745594607.247868
129,1,1,3,189,15,-0.42236328125,1.35888671875,-0.19189453125,-42.05322265625,56.2744140625,169.43359375,-112.76895829748179,-87.34160787013136,119.85525576166384,1745594607.2543645
130,1,1,3,204,15,-0.330078125,1.2021484375,-0.21044921875,-32.71484375,55.419921875,150.81787109375,-100.79396833591464,-99.3165978316985,127.37748807310358,1745594607.260834
131,1,1,3,219,15,-0.625,1.0966796875,-0.2412109375,-21.30126953125,55.11474609375,126.8310546875,-100.79396833591464,-78.360365398956,127.37748807310358,1745594607.2673256
132,1,1,3,234,15,-0.91552734375,1.06640625,-0.1494140625,-15.0146484375,30.8837890625,98.6328125,-102.29084208111054,-87.34160787013136,128.88193453539154,1745594607.273816
133,1,1,3,249,15,-0.94580078125,0.79150390625,-0.17041015625,-6.8359375,-6.16455078125,62.1337890625,-112.76895829748179,-82.85098663454367,128.88193453539154,1745594607.2803955
134,1,1,3,264,15,-0.78271484375,0.96484375,-0.2822265625,8.11767578125,-30.2734375,22.76611328125,-117.25957953306947,-82.85098663454367,133.39527392225537,1745594607.2868726
135,1,1,3,279,15,-0.3779296875,1.42333984375,-0.31787109375,18.37158203125,-40.52734375,-9.82666015625,-121.75020076865715,-84.34786037973959,131.89082745996743,1745594607.2937994
136,1,1,3,294,15,-0.71044921875,0.7490234375,-0.02392578125,35.0341796875,-16.29638671875,-61.4013671875,-132.22831698502839,-91.83222910571904,134.8997203845433,1745594607.3002923
137,1,1,3,309,15,1.2841796875,1.29248046875,0.345703125,21.66748046875,-14.34326171875,-64.51416015625,-123.24707451385304,-75.36661790856421,115.34191637480001,1745594607.3067486
138,1,1,3,324,15,1.79296875,1.09912109375,0.47412109375,21.17919921875,41.19873046875,13.916015625,-127.7376957494407,-100.81347157689439,139.41305977140715,1745594607.313247
139,1,1,3,339,15,0.13671875,0.7255859375,0.2333984375,24.59716796875,84.77783203125,-28.74755859375,-123.24707451385304,-82.85098663454367,128.88193453539154,1745594607.3399754
140,1,1,3,354,15,0.3125,1.3193359375,0.3642578125,32.470703125,64.75830078125,-49.01123046875,-130.7314432398325,-90.33535536052314,115.34191637480001,1745594607.3480287
141,1,1,3,369,15,0.27734375,1.12890625,0.42919921875,31.25,67.32177734375,-41.50390625,-120.25332702346124,-72.37287041817243,119.85525576166384,1745594607.3552673
142,1,1,3,384,15,0.10791015625,1.04345703125,0.146484375,39.48974609375,62.56103515625,-45.2880859375,-124.74394825904892,-81.35411288934777,134.8997203845433,1745594607.515071
143,1,1,3,399,15,0.08056640625,1.09033203125,-0.34814453125,46.44775390625,44.7998046875,-41.6259765625,-127.7376957494407,-69.37912292778066,119.85525576166384,1745594607.5216095
144,1,1,3,414,15,0.21630859375,1.1416015625,-0.62060546875,57.2509765625,45.654296875,-41.748046875,-132.22831698502839,-66.38537543738886,103.30634467649644,1745594607.5280976
145,1,1,3,429,15,0.21435546875,1.45703125,0.119140625,37.65869140625,45.166015625,-42.78564453125,-136.71893822061608,-66.38537543738886,116.84636283708795,1745594607.5345087
146,1,1,3,444,15,-0.09521484375,0.9541015625,0.021484375,36.80419921875,21.66748046875,-40.1611328125,-142.70643320139962,-60.397880456605286,107.81968406336027,1745594607.621349
147,1,1,3,459,15,0.166015625,0.9541015625,0.02197265625,33.935546875,-8.7890625,-38.26904296875,-136.71893822061608,-57.4041329662135,124.36859514852769,1745594607.6446018
148,1,1,3,474,15,0.1826171875,0.998046875,-0.04736328125,30.57861328125,-25.20751953125,-41.68701171875,-136.71893822061608,-54.41038547582172,110.82857698793617,1745594607.6518254
149,1,1,3,489,15,0.1767578125,1.0107421875,0.00390625,27.83203125,-31.67724609375,-42.41943359375,-150.1908019273791,-46.926016749842255,110.82857698793617,1745594607.65835
150,1,1,3,504,15,0.2255859375,1.04833984375,-0.0078125,26.18408203125,-26.18408203125,-43.701171875,-138.21581196581198,-45.429143004646356,104.8107911387844,1745594607.6652787
151,1,1,3,519,15,0.240234375,1.0302734375,0.00634765625,26.85546875,-15.869140625,-43.0908203125,-150.1908019273791,-60.397880456605286,121.3597022239518,1745594607.671702
152,1,1,3,534,15,0.1845703125,1.01611328125,-0.03662109375,27.16064453125,-8.85009765625,-41.80908203125,-142.70643320139962,-43.932269259450464,100.29745175192055,1745594607.6781466
153,1,1,3,549,15,0.1494140625,1.0078125,-0.0517578125,25.2685546875,-8.85009765625,-40.4052734375,-156.17829690816268,-61.894754201801184,98.7930052896326,1745594607.6851904
154,1,1,3,564,15,0.1884765625,1.0029296875,-0.08056640625,21.97265625,-11.8408203125,-39.794921875,-163.66266563414214,-54.41038547582172,103.30634467649644,1745594607.6918762
155,1,1,3,579,15,0.22265625,0.99609375,-0.123046875,18.9208984375,-10.92529296875,-38.9404296875,-160.66891814375037,-51.41663798542993,107.81968406336027,1745594607.6983593
156,1,1,3,594,15,0.2529296875,0.99560546875,-0.08251953125,14.46533203125,-15.56396484375,-41.3818359375,-172.64390810531748,-55.907259221017604,109.32413052564823,1745594607.7071948
157,1,1,3,609,15,0.21826171875,0.97509765625,-0.04541015625,12.63427734375,-19.95849609375,-43.15185546875,-160.66891814375037,-51.41663798542993,103.30634467649644,1745594607.713637
158,1,1,3,624,15,0.146484375,1.00390625,-0.07568359375,11.77978515625,-26.55029296875,-45.10498046875,-169.6501606149257,-61.894754201801184,122.86414868623974,1745594607.720102
159,1,1,3,639,15,0.11962890625,1.0166015625,-0.10791015625,8.6669921875,-27.7099609375,-47.4853515625,-160.66891814375037,-60.397880456605286,113.83746991251206,1745594607.7271793
160,1,1,3,654,15,0.1435546875,1.0087890625,-0.07568359375,7.568359375,-24.658203125,-46.20361328125,-157.67517065335855,-54.41038547582172,110.82857698793617,1745594607.7335954
161,1,1,3,669,15,0.1396484375,1.01416015625,-0.06982421875,7.14111328125,-22.27783203125,-46.44775390625,-156.17829690816268,-55.907259221017604,109.32413052564823,1745594607.740052
162,1,1,3,684,15,0.1484375,1.01708984375,-0.11181640625,6.2255859375,-18.61572265625,-47.4853515625,-162.16579188894625,-64.88850169219297,119.85525576166384,1745594607.7469854
163,1,1,3,699,15,0.1513671875,1.03515625,-0.12890625,3.0517578125,-21.240234375,-46.56982421875,-162.16579188894625,-52.91351173062582,104.8107911387844,1745594607.7554214
164,1,1,3,714,15,0.08935546875,1.01806640625,-0.125,1.28173828125,-23.98681640625,-46.9970703125,-175.6376555957093,-60.397880456605286,103.30634467649644,1745594607.7618444
165,1,1,3,729,15,0.056640625,0.982421875,-0.10009765625,0.244140625,-25.69580078125,-46.9970703125,-168.1532868697298,-51.41663798542993,121.3597022239518,1745594607.7690504
166,1,1,3,744,15,0.03662109375,1.00634765625,-0.10107421875,-0.244140625,-26.4892578125,-47.607421875,-169.6501606149257,-61.894754201801184,115.34191637480001,1745594607.775647
167,1,1,3,759,15,0.06103515625,1.01220703125,-0.06884765625,-0.42724609375,-24.47509765625,-48.33984375,-166.65641312453394,-55.907259221017604,119.85525576166384,1745594607.7876112
168,1,1,3,774,15,0.01513671875,1.00927734375,-0.13720703125,-0.8544921875,-20.99609375,-47.36328125,-172.64390810531748,-52.91351173062582,112.33302345022412,1745594607.794343
169,1,1,3,789,15,-0.01708984375,1.015625,-0.1318359375,-1.03759765625,-20.69091796875,-45.166015625,-168.1532868697298,-54.41038547582172,113.83746991251206,1745594607.8008173
170,1,1,3,804,15,-0.00830078125,1.044921875,-0.0576171875,-1.40380859375,-24.35302734375,-42.41943359375,-175.6376555957093,-51.41663798542993,103.30634467649644,1745594607.8090842
171,1,1,3,819,15,0.017578125,1.03173828125,-0.0810546875,-2.38037109375,-24.59716796875,-44.12841796875,-160.66891814375037,-57.4041329662135,107.81968406336027,1745594607.8210404
172,1,1,3,834,15,0.11474609375,1.00390625,-0.01220703125,-2.62451171875,-24.59716796875,-46.44775390625,-169.6501606149257,-58.901006711409394,122.86414868623974,1745594607.827631
173,1,1,3,849,15,0.05517578125,1.05224609375,-0.11572265625,-3.72314453125,-23.74267578125,-49.86572265625,-168.1532868697298,-57.4041329662135,116.84636283708795,1745594607.834193
174,1,1,3,864,15,0.08056640625,1.04833984375,-0.1103515625,-4.33349609375,-28.38134765625,-53.466796875,-172.64390810531748,-58.901006711409394,109.32413052564823,1745594607.8406606
175,1,1,3,879,15,0.095703125,1.09326171875,-0.1240234375,-2.99072265625,-35.33935546875,-59.99755859375,-159.17204439855445,-55.907259221017604,109.32413052564823,1745594607.8471758
176,1,1,3,894,15,0.17236328125,1.107421875,-0.041015625,-1.0986328125,-37.17041015625,-67.87109375,-159.17204439855445,-75.36661790856421,109.32413052564823,1745594607.8536031
177,1,1,3,909,15,0.052734375,1.08642578125,-0.0341796875,3.0517578125,-35.15625,-76.72119140625,-156.17829690816268,-72.37287041817243,122.86414868623974,1745594607.8605485
178,1,1,3,924,15,0.07177734375,1.2216796875,-0.00244140625,4.7607421875,-33.02001953125,-88.2568359375,-156.17829690816268,-58.901006711409394,109.32413052564823,1745594607.868755
179,1,1,3,939,15,0.0576171875,1.23828125,0.0703125,2.74658203125,-30.09033203125,-96.6796875,-166.65641312453394,-58.901006711409394,128.88193453539154,1745594607.8768585
180,1,1,3,954,15,0.0263671875,1.31103515625,0.029296875,7.9345703125,-21.42333984375,-108.88671875,-156.17829690816268,-61.894754201801184,115.34191637480001,1745594607.8848836
181,1,1,3,969,15,0.16845703125,1.1591796875,0.07421875,7.99560546875,-16.845703125,-119.68994140625,-150.1908019273791,-57.4041329662135,131.89082745996743,1745594607.8934956
182,1,1,3,984,15,0.19677734375,1.2529296875,-0.0322265625,10.986328125,-13.36669921875,-135.80322265625,-160.66891814375037,-60.397880456605286,121.3597022239518,1745594607.922628
183,1,1,3,999,15,0.17822265625,1.29541015625,-0.01220703125,14.2822265625,-8.60595703125,-148.86474609375,-159.17204439855445,-61.894754201801184,125.87304161081563,1745594607.9316876
184,1,1,4,14,15,0.1083984375,1.3837890625,-0.029296875,18.4326171875,-7.75146484375,-160.33935546875,-163.66266563414214,-60.397880456605286,121.3597022239518,1745594607.939826
185,1,1,4,29,15,0.11669921875,1.39599609375,0.0224609375,26.3671875,-8.4228515625,-166.50390625,-153.18454941777088,-70.87599667297654,131.89082745996743,1745594607.9478824
186,1,1,4,44,15,0.0126953125,1.50439453125,0.005859375,36.62109375,-19.95849609375,-169.7998046875,-159.17204439855445,-61.894754201801184,136.40416684683126,1745594607.9568737
187,1,1,4,59,15,-0.0537109375,1.7197265625,0.07177734375,38.0859375,-39.794921875,-171.81396484375,-162.16579188894625,-48.422890495038146,143.926399158271,1745594607.966454
188,1,1,4,74,15,0.669921875,2.0185546875,0.08935546875,39.36767578125,-75.13427734375,-176.3916015625,-175.6376555957093,-51.41663798542993,134.8997203845433,1745594607.9788916
189,1,1,4,89,15,0.4228515625,1.697265625,-0.12158203125,39.306640625,-79.9560546875,-164.306640625,-171.1470343601216,-63.39162794699707,137.9086133091192,1745594607.9926422
190,1,1,4,104,15,-0.14501953125,1.60302734375,-0.3876953125,33.203125,-74.0966796875,-170.83740234375,-172.64390810531748,-58.901006711409394,146.93529208284687,1745594607.9991636
191,1,1,4,119,15,-0.14453125,1.44775390625,-0.46728515625,23.681640625,-53.28369140625,-176.025390625,-190.6063930476682,-55.907259221017604,146.93529208284687,1745594608.0056872
192,1,1,4,134,15,-0.4013671875,1.259765625,-0.54345703125,31.25,-24.47509765625,-169.61669921875,-196.59388802845177,-57.4041329662135,145.43084562055893,1745594608.0146017
193,1,1,4,149,15,-0.25146484375,1.14599609375,-0.4130859375,33.447265625,-24.35302734375,-156.55517578125,-199.58763551884357,-51.41663798542993,142.42195269598304,1745594608.0211232
194,1,1,4,164,15,0.00146484375,0.89111328125,-0.28076171875,26.06201171875,-32.71484375,-114.8681640625,-190.6063930476682,-37.9447742786669,154.4575243942866,1745594608.0277102
195,1,1,4,179,15,0.171875,0.54833984375,-0.21044921875,23.98681640625,-38.9404296875,-73.974609375,-198.09076177364767,-55.907259221017604,154.4575243942866,1745594608.0352473
196,1,1,4,194,15,-0.25634765625,0.376953125,-0.26171875,18.12744140625,-20.56884765625,-50.6591796875,-198.09076177364767,-55.907259221017604,149.94418500742276,1745594608.0423603
197,1,1,4,209,15,0.044921875,0.44677734375,-0.2470703125,5.37109375,5.55419921875,-18.06640625,-219.0469942063902,-37.9447742786669,143.926399158271,1745594608.048862
198,1,1,4,224,15,0.29931640625,0.37060546875,-0.09814453125,-4.45556640625,35.21728515625,19.287109375,-225.03448918717373,-60.397880456605286,158.97086378115046,1745594608.0562477
199,1,1,4,239,15,0.31640625,0.3544921875,-0.10595703125,-10.1318359375,62.43896484375,49.01123046875,-231.02198416795733,-51.41663798542993,161.97975670572634,1745594608.0648935
200,1,1,4,254,15,0.2763671875,0.333984375,-0.01416015625,-18.85986328125,83.55712890625,77.57568359375,-234.0157316583491,-42.43539551425457,160.4753102434384,1745594608.0713823
201,1,1,4,269,15,0.1455078125,0.31640625,0.001953125,-24.5361328125,95.5810546875,109.31396484375,-240.00322663913266,-42.43539551425457,171.006435479454,1745594608.0787106
202,1,1,4,284,15,0.0234375,0.45458984375,-0.07421875,-38.9404296875,96.00830078125,138.73291015625,-240.00322663913266,-45.429143004646356,160.4753102434384,1745594608.0853796
203,1,1,4,299,15,-0.13134765625,0.46923828125,-0.14208984375,-47.119140625,92.6513671875,163.2080078125,-226.53136293236963,-24.47291057190386,160.4753102434384,1745594608.0925825
204,1,1,4,314,15,-0.1767578125,0.61279296875,-0.1357421875,-59.02099609375,86.0595703125,189.88037109375,-234.0157316583491,-27.466658062295643,163.4842031680143,1745594608.099999
205,1,1,4,329,15,-0.12939453125,0.61328125,-0.03857421875,-63.5986328125,83.06884765625,215.2099609375,-235.512605403545,-11.001046865140825,166.49309609259018,1745594608.1064787
206,1,1,4,344,15,-0.07958984375,0.70263671875,-0.00927734375,-69.091796875,85.99853515625,232.0556640625,-238.50635289393676,-18.48541559112029,166.49309609259018,1745594608.120504
207,1,1,4,359,15,-0.13671875,0.77685546875,-0.01513671875,-73.1201171875,85.75439453125,244.93408203125,-237.0094791487409,-27.466658062295643,157.4664173188625,1745594608.1270876
208,1,1,4,374,15,-0.12646484375,0.90087890625,-0.07177734375,-75.68359375,83.80126953125,254.2724609375,-226.53136293236963,-19.982289336316178,160.4753102434384,1745594608.133503
209,1,1,4,389,15,-0.10302734375,1.0615234375,-0.107421875,-76.7822265625,82.82470703125,267.2119140625,-225.03448918717373,-8.007299374749035,161.97975670572634,1745594608.1408777
210,1,1,4,404,15,-0.169921875,1.26318359375,-0.14697265625,-75.98876953125,87.09716796875,273.4375,-219.0469942063902,-2.019804393965471,163.4842031680143,1745594608.147367
211,1,1,4,419,15,-0.23583984375,1.43603515625,-0.17919921875,-77.7587890625,82.58056640625,275.57373046875,-228.02823667756553,-0.5229306487695766,151.4486314697107,1745594608.153793
212,1,1,4,434,15,-0.26220703125,1.5732421875,-0.24951171875,-81.6650390625,78.55224609375,287.65869140625,-242.99697412952446,20.433301783972926,155.96197085657457,1745594608.1610467
213,1,1,4,449,15,-0.34619140625,1.80419921875,-0.314453125,-85.26611328125,77.880859375,295.83740234375,-238.50635289393676,2.4708168416222125,151.4486314697107,1745594608.1695516
214,1,1,4,464,15,-0.61474609375,1.869140625,-0.34765625,-86.85302734375,70.6787109375,299.86572265625,-257.9657115814834,-6.510425629553148,160.4753102434384,1745594608.176731
215,1,1,4,479,15,-0.857421875,1.7734375,-0.22802734375,-85.87646484375,40.8935546875,295.22705078125,-257.9657115814834,-6.510425629553148,154.4575243942866,1745594608.183223
216,1,1,4,494,15,-0.908203125,1.78515625,-0.21337890625,-79.04052734375,10.3759765625,282.89794921875,-259.4625853266793,-0.5229306487695766,166.49309609259018,1745594608.2009072
217,1,1,4,509,15,-0.62744140625,1.73779296875,-0.25927734375,-68.7255859375,7.87353515625,251.28173828125,-248.98446911030803,-21.479163081512073,151.4486314697107,1745594608.2074308
218,1,1,4,524,15,-0.7919921875,1.4365234375,-0.3876953125,-56.884765625,27.89306640625,216.61376953125,-262.4563328170711,-16.988541845924395,160.4753102434384,1745594608.2138562
219,1,1,4,539,15,-1.4130859375,1.181640625,-0.4541015625,-42.6025390625,16.90673828125,168.8232421875,-268.4438277978546,-19.982289336316178,163.4842031680143,1745594608.2226248
220,1,1,4,554,15,-1.82275390625,0.904296875,-0.33935546875,-15.869140625,-11.1083984375,119.5068359375,-256.4688378362875,-28.963531807491538,172.51088194174199,1745594608.2291644
221,1,1,4,569,15,-1.68896484375,1.1904296875,-0.27783203125,-0.8544921875,-46.44775390625,39.55078125,-265.4500803074629,-30.460405552687433,178.52866779089373,1745594608.2513509
222,1,1,4,584,15,-1.32080078125,0.9072265625,-0.1533203125,13.97705078125,-22.705078125,-34.3017578125,-272.9344490334423,-45.429143004646356,160.4753102434384,1745594608.293645
223,1,1,4,599,15,-0.291015625,0.79345703125,-0.203125,35.82763671875,17.51708984375,-100.4638671875,-268.4438277978546,-37.9447742786669,154.4575243942866,1745594608.3009958
224,1,1,4,614,15,2.57666015625,1.736328125,0.6376953125,13.61083984375,-11.23046875,-42.3583984375,-257.9657115814834,-24.47291057190386,167.99754255487815,1745594608.3077633
225,1,1,4,629,15,0.07177734375,0.64599609375,0.0810546875,17.88330078125,13.7939453125,-1.953125,-266.9469540526587,-25.969784317099755,158.97086378115046,1745594608.3143332
226,1,1,4,644,15,0.3662109375,1.40625,-0.04736328125,35.15625,12.20703125,-74.70703125,-263.953206562267,-21.479163081512073,158.97086378115046,1745594608.3232596
227,1,1,4,659,15,0.515625,1.3154296875,0.072265625,37.17041015625,31.005859375,-74.462890625,-265.4500803074629,-24.47291057190386,157.4664173188625,1745594608.3555634
228,1,1,4,674,15,0.22216796875,1.18798828125,0.08935546875,48.095703125,48.9501953125,-85.205078125,-253.4750903458957,-3.5166781391613586,145.43084562055893,1745594608.3628738
229,1,1,4,689,15,-0.029296875,1.1240234375,-0.34326171875,56.7626953125,44.37255859375,-74.3408203125,-256.4688378362875,-3.5166781391613586,145.43084562055893,1745594608.3697498
230,1,1,4,704,15,-0.02685546875,1.3134765625,-0.51708984375,64.88037109375,42.29736328125,-60.24169921875,-263.953206562267,2.4708168416222125,145.43084562055893,1745594608.3766947
231,1,1,4,719,15,-0.18994140625,1.4287109375,0.12939453125,45.22705078125,35.46142578125,-50.96435546875,-266.9469540526587,-15.491668100728502,148.43973854513484,1745594608.3832104
232,1,1,4,734,15,-0.14306640625,1.01953125,-0.0029296875,39.4287109375,4.94384765625,-46.69189453125,-263.953206562267,9.95518556760167,137.9086133091192,1745594608.389732
233,1,1,4,749,15,0.02734375,1.126953125,-0.02880859375,34.912109375,-23.3154296875,-45.5322265625,-268.4438277978546,0.9739430964263179,133.39527392225537,1745594608.3962164
234,1,1,4,764,15,0.09033203125,1.05078125,-0.08251953125,29.1748046875,-52.18505859375,-46.9970703125,-277.42507026902996,14.445806803189347,142.42195269598304,1745594608.402779
235,1,1,4,779,15,0.17919921875,0.98193359375,0.01123046875,24.2919921875,-67.87109375,-48.40087890625,-265.4500803074629,8.458311822405784,133.39527392225537,1745594608.409297
236,1,1,4,794,15,0.3876953125,0.9853515625,-0.11328125,26.4892578125,-48.76708984375,-45.654296875,-268.4438277978546,0.9739430964263179,119.85525576166384,1745594608.4218087
237,1,1,4,809,15,0.36328125,0.95849609375,-0.171875,24.47509765625,-25.2685546875,-45.95947265625,-281.9156915046177,2.4708168416222125,142.42195269598304,1745594608.428828
238,1,1,4,824,15,0.2998046875,0.9638671875,-0.1142578125,20.5078125,-17.63916015625,-46.08154296875,-272.9344490334423,5.464564332013994,119.85525576166384,1745594608.4354622
239,1,1,4,839,15,0.232421875,0.974609375,-0.12451171875,18.798828125,-22.8271484375,-48.583984375,-277.42507026902996,14.445806803189347,124.36859514852769,1745594609.1461964
240,1,1,4,854,15,0.2705078125,0.97802734375,-0.16259765625,14.7705078125,-28.50341796875,-48.828125,-274.43132277863816,9.95518556760167,121.3597022239518,1745594609.1527038
241,1,1,4,869,15,0.2744140625,0.94482421875,-0.1201171875,12.0849609375,-31.1279296875,-49.4384765625,-292.39380772098895,20.433301783972926,131.89082745996743,1745594609.159146
242,1,1,4,884,15,0.2626953125,0.97998046875,-0.10107421875,11.5966796875,-24.47509765625,-51.6357421875,-281.9156915046177,6.961438077209882,124.36859514852769,1745594610.5189571
243,1,1,4,899,15,0.13671875,1.00927734375,-0.0595703125,12.6953125,-19.22607421875,-52.06298828125,-283.4125652498136,8.458311822405784,133.39527392225537,1745594610.525569
244,1,1,4,914,15,0.10693359375,0.99560546875,-0.0927734375,12.02392578125,-23.193359375,-51.6357421875,-287.90318648540125,14.445806803189347,124.36859514852769,1745594610.5321963
245,1,1,4,929,15,0.1318359375,0.99169921875,-0.11083984375,11.5966796875,-27.64892578125,-51.1474609375,-283.4125652498136,8.458311822405784,143.926399158271,1745594610.5387309
246,1,1,4,944,15,0.1611328125,0.9970703125,-0.15185546875,9.70458984375,-30.2734375,-50.96435546875,-269.9407015430505,20.433301783972926,127.37748807310358,1745594610.5453155
247,1,1,4,959,15,0.173828125,1.00830078125,-0.18505859375,7.50732421875,-28.13720703125,-51.20849609375,-277.42507026902996,24.923923019560604,124.36859514852769,1745594610.5517764
248,1,1,4,974,15,0.11328125,1.00244140625,-0.15380859375,5.31005859375,-29.296875,-50.78125,-272.9344490334423,26.420796764756492,133.39527392225537,1745594610.5582502
249,1,1,4,989,15,0.080078125,1.01171875,-0.1435546875,4.69970703125,-28.6865234375,-51.7578125,-290.89693397579305,8.458311822405784,149.94418500742276,1745594610.8495622
250,1,1,5,4,15,0.111328125,1.0029296875,-0.11669921875,5.79833984375,-25.2685546875,-52.30712890625,-277.42507026902996,14.445806803189347,127.37748807310358,1745594610.8561347
251,1,1,5,19,15,0.06298828125,1.03076171875,-0.1318359375,6.7138671875,-21.6064453125,-51.6357421875,-278.92194401422586,29.41454425514828,125.87304161081563,1745594610.8625464
252,1,1,5,34,15,0.0380859375,1.0048828125,-0.11669921875,6.77490234375,-22.64404296875,-51.45263671875,-283.4125652498136,8.458311822405784,143.926399158271,1745594610.8689992
253,1,1,5,49,15,0.033203125,1.00732421875,-0.1396484375,7.080078125,-22.705078125,-49.98779296875,-278.92194401422586,21.930175529168814,136.40416684683126,1745594610.875559
254,1,1,5,64,15,0.03564453125,1.00537109375,-0.1708984375,6.65283203125,-22.5830078125,-50.537109375,-268.4438277978546,15.94268054838525,125.87304161081563,1745594610.8819895
255,1,1,5,79,15,0.0439453125,1.03125,-0.19921875,6.04248046875,-24.96337890625,-51.025390625,-268.4438277978546,15.94268054838525,125.87304161081563,1745594611.1220388
256,1,1,5,94,15,0.044921875,1.02880859375,-0.15771484375,5.859375,-30.70068359375,-52.79541015625,-262.4563328170711,29.41454425514828,160.4753102434384,1745594611.4160771
257,1,1,5,109,15,0.05126953125,1.04150390625,-0.2373046875,6.77490234375,-36.07177734375,-56.396484375,-263.953206562267,17.439554293581136,148.43973854513484,1745594611.42251
258,1,1,5,124,15,0.05859375,1.046875,-0.16552734375,8.544921875,-41.8701171875,-60.9130859375,-262.4563328170711,15.94268054838525,139.41305977140715,1745594611.4296172
259,1,1,5,139,15,0.03662109375,1.09765625,-0.1767578125,8.7890625,-44.0673828125,-65.97900390625,-284.90943899500945,30.911418000344167,148.43973854513484,1745594611.4360807
260,1,1,5,154,15,0.07666015625,1.1787109375,-0.07373046875,11.16943359375,-46.08154296875,-71.83837890625,-266.9469540526587,20.433301783972926,148.43973854513484,1745594611.4424965
261,1,1,5,169,15,0.1015625,1.17236328125,-0.0712890625,12.6953125,-43.0908203125,-77.57568359375,-250.48134285550393,18.936428038777038,139.41305977140715,1745594611.4496033
262,1,1,5,184,15,0.064453125,1.17138671875,0.05810546875,17.9443359375,-39.48974609375,-86.181640625,-256.4688378362875,14.445806803189347,145.43084562055893,1745594611.456897
263,1,1,5,199,15,0.08935546875,1.12353515625,-0.00634765625,21.484375,-37.65869140625,-97.22900390625,-250.48134285550393,8.458311822405784,136.40416684683126,1745594611.4633348
264,1,1,5,214,15,0.08056640625,1.20068359375,-0.0009765625,24.71923828125,-34.1796875,-110.41259765625,-238.50635289393676,24.923923019560604,155.96197085657457,1745594611.4699018
265,1,1,5,229,15,0.0966796875,1.24365234375,-0.0595703125,26.06201171875,-26.42822265625,-123.53515625,-248.98446911030803,27.91767050995239,151.4486314697107,1745594611.476359
266,1,1,5,244,15,0.0673828125,1.2568359375,-0.0361328125,30.70068359375,-22.64404296875,-136.41357421875,-231.02198416795733,30.911418000344167,142.42195269598304,1745594611.4827704
267,1,1,5,259,15,0.13623046875,1.328125,-0.04736328125,34.60693359375,-24.35302734375,-148.37646484375,-237.0094791487409,33.90516549073595,143.926399158271,1745594611.4894218
268,1,1,5,274,15,0.166015625,1.46044921875,-0.05029296875,36.68212890625,-25.32958984375,-161.2548828125,-234.0157316583491,54.86139792347845,163.4842031680143,1745594611.4959195
269,1,1,5,289,15,0.1806640625,1.47265625,-0.03466796875,42.29736328125,-25.93994140625,-168.51806640625,-229.5251104227614,57.85514541387024,146.93529208284687,1745594611.502326
270,1,1,5,304,15,0.1806640625,1.5029296875,-0.00390625,51.6357421875,-41.3818359375,-170.22705078125,-240.00322663913266,47.377029197499,149.94418500742276,1745594611.5091507
271,1,1,5,319,15,0.45556640625,1.818359375,0.1171875,56.7626953125,-61.5234375,-171.32568359375,-235.512605403545,56.358271668674355,158.97086378115046,1745594611.5209947
272,1,1,5,334,15,0.509765625,1.8037109375,0.05126953125,73.42529296875,-70.86181640625,-162.2314453125,-225.03448918717373,48.87390294269489,151.4486314697107,1745594611.5274825
273,1,1,5,349,15,-0.06787109375,1.6328125,-0.0283203125,77.2705078125,-82.09228515625,-154.35791015625,-228.02823667756553,66.83638788504561,148.43973854513484,1745594611.533989
274,1,1,5,364,15,-0.744140625,1.89404296875,-0.31884765625,71.35009765625,-77.69775390625,-171.875,-214.5563729708025,60.84889290426203,155.96197085657457,1745594611.540445
275,1,1,5,379,15,-0.32177734375,1.58544921875,-0.4833984375,46.93603515625,-93.44482421875,-160.7666015625,-210.0657517352148,74.32075661102506,151.4486314697107,1745594611.546883
276,1,1,5,394,15,-0.326171875,1.41845703125,-0.701171875,47.54638671875,-60.791015625,-165.1611328125,-217.5501204611943,63.84264039465382,172.51088194174199,1745594611.553372
277,1,1,5,409,15,-0.01171875,1.16162109375,-0.4560546875,42.05322265625,-71.10595703125,-134.33837890625,-217.5501204611943,42.886407961911324,166.49309609259018,1745594611.5600483
278,1,1,5,424,15,0.37646484375,0.703125,-0.3095703125,38.63525390625,-75.62255859375,-80.4443359375,-214.5563729708025,78.81137784661274,172.51088194174199,1745594611.5909011
279,1,1,5,439,15,-0.02783203125,0.31005859375,-0.36279296875,33.26416015625,-82.09228515625,-40.22216796875,-223.53761544197786,69.83013537543738,174.0153284040299,1745594611.5974073
280,1,1,5,454,15,0.23974609375,0.27392578125,-0.27392578125,21.6064453125,-84.28955078125,-4.82177734375,-228.02823667756553,84.79887282739631,186.0509001023335,1745594611.6038043
281,1,1,5,469,15,0.5361328125,0.25830078125,-0.0517578125,5.37109375,-66.162109375,27.2216796875,-217.5501204611943,66.83638788504561,183.04200717775757,1745594611.6103733
282,1,1,5,484,15,0.5048828125,0.2783203125,0.0625,-5.37109375,-28.4423828125,62.3779296875,-244.49384787472036,65.33951413984971,195.07757887606115,1745594611.622269
283,1,1,5,499,15,0.34912109375,0.36962890625,0.14404296875,-16.357421875,-3.35693359375,94.23828125,-242.99697412952446,74.32075661102506,186.0509001023335,1745594611.6574266
284,1,1,5,514,15,0.18017578125,0.39697265625,0.12939453125,-35.33935546875,17.39501953125,129.21142578125,-237.0094791487409,75.81763035622096,181.53756071546965,1745594611.665993
285,1,1,5,529,15,0.05078125,0.32177734375,0.07763671875,-40.1611328125,27.77099609375,155.029296875,-253.4750903458957,60.84889290426203,193.5731324137732,1745594611.6724377
286,1,1,5,544,15,-0.01708984375,0.4326171875,0.01171875,-49.8046875,45.0439453125,181.45751953125,-256.4688378362875,84.79887282739631,201.09536472521296,1745594611.679289
287,1,1,5,559,15,-0.0419921875,0.603515625,-0.099609375,-57.7392578125,63.720703125,208.8623046875,-265.4500803074629,72.82388286582916,192.06868595148526,1745594611.6857874
288,1,1,5,574,15,-0.03759765625,0.6865234375,-0.07763671875,-68.90869140625,78.79638671875,227.35595703125,-265.4500803074629,69.83013537543738,192.06868595148526,1745594611.749331
289,1,1,5,589,15,-0.02978515625,0.75732421875,-0.07861328125,-73.73046875,98.20556640625,246.9482421875,-275.92819652383406,90.78636780817989,184.54645364004554,1745594611.7563102
290,1,1,5,604,15,-0.04931640625,0.8671875,-0.1298828125,-78.91845703125,110.65673828125,260.8642578125,-283.4125652498136,83.30199908220041,181.53756071546965,1745594611.7627466
291,1,1,5,619,15,-0.14208984375,1.005859375,-0.19189453125,-84.8388671875,112.1826171875,271.05712890625,-295.3875552113807,81.80512533700454,180.03311425318168,1745594611.7712305
292,1,1,5,634,15,-0.19384765625,1.1875,-0.23046875,-90.2099609375,100.64697265625,278.62548828125,-311.85316640853557,65.33951413984971,184.54645364004554,1745594611.7998931
293,1,1,5,649,15,-0.2431640625,1.435546875,-0.30810546875,-91.85791015625,94.23828125,281.06689453125,-305.8656714277519,63.84264039465382,166.49309609259018,1745594611.8063836
294,1,1,5,664,15,-0.41796875,1.578125,-0.2861328125,-97.47314453125,94.66552734375,290.8935546875,-332.809398841278,54.86139792347845,163.4842031680143,1745594611.8127878
295,1,1,5,679,15,-0.40185546875,1.74072265625,-0.259765625,-102.5390625,87.158203125,299.072265625,-335.80314633166984,57.85514541387024,163.4842031680143,1745594611.8198617
296,1,1,5,694,15,-0.43310546875,1.8662109375,-0.33349609375,-106.14013671875,71.59423828125,304.13818359375,-350.77188378362877,15.94268054838525,171.006435479454,1745594611.826354
297,1,1,5,709,15,-0.607421875,1.90771484375,-0.39453125,-99.2431640625,58.349609375,302.79541015625,-346.28126254804107,-2.019804393965471,174.0153284040299,1745594611.8327594
298,1,1,5,724,15,-0.92529296875,1.87646484375,-0.34521484375,-91.00341796875,18.61572265625,285.64453125,-344.78438880284517,-11.001046865140825,180.03311425318168,1745594611.8651986
299,1,1,5,739,15,-0.98779296875,1.8232421875,-0.3779296875,-75.50048828125,-11.5966796875,266.90673828125,-334.3062725864739,-39.44164802386278,190.56423948919732,1745594611.8736403
300,1,1,5,754,15,-0.861328125,1.396484375,-0.453125,-56.45751953125,-10.1318359375,239.3798828125,-325.32503011529855,-42.43539551425457,198.08647180063704,1745594611.8807654
301,1,1,5,769,15,-1.1171875,1.3154296875,-0.46484375,-41.80908203125,-3.72314453125,187.56103515625,-304.368797682556,-48.422890495038146,198.08647180063704,1745594611.887245
302,1,1,5,784,15,-1.2998046875,0.9052734375,-0.57861328125,-21.6064453125,-5.4931640625,138.5498046875,-314.8469138989273,-64.88850169219297,184.54645364004554,1745594611.8939273
303,1,1,5,799,15,-1.61181640625,0.85693359375,-0.56005859375,8.6669921875,-18.12744140625,67.5048828125,-304.368797682556,-64.88850169219297,205.6087041120768,1745594611.9011865
304,1,1,5,814,15,-1.5439453125,0.9326171875,-0.408203125,27.7099609375,-26.9775390625,-7.87353515625,-302.8719239373602,-66.38537543738886,193.5731324137732,1745594611.9076636
305,1,1,5,829,15,-0.91943359375,0.9921875,-0.22412109375,30.1513671875,-10.68115234375,-58.10546875,-290.89693397579305,-69.37912292778066,192.06868595148526,1745594611.9141715
306,1,1,5,844,15,0.36865234375,0.8671875,0.05322265625,37.9638671875,31.92138671875,-126.64794921875,-290.89693397579305,-69.37912292778066,181.53756071546965,1745594611.9230616
307,1,1,5,859,15,2.94091796875,1.65185546875,0.67626953125,31.3720703125,37.109375,-20.44677734375,-281.9156915046177,-66.38537543738886,193.5731324137732,1745594611.929584
308,1,1,5,874,15,0.16552734375,0.61181640625,0.408203125,36.0107421875,95.88623046875,-26.30615234375,-274.43132277863816,-43.932269259450464,183.04200717775757,1745594611.971811
309,1,1,5,889,15,0.01416015625,1.56494140625,0.56884765625,36.56005859375,78.857421875,-90.2099609375,-295.3875552113807,-21.479163081512073,175.51977486631785,1745594611.9784322
310,1,1,5,904,15,0.0244140625,1.296875,0.2822265625,40.46630859375,59.9365234375,-69.580078125,-278.92194401422586,-27.466658062295643,167.99754255487815,1745594611.9856403
311,1,1,5,919,15,0.17529296875,1.24365234375,-0.23828125,53.466796875,64.94140625,-71.47216796875,-292.39380772098895,-15.491668100728502,161.97975670572634,1745594611.992173
312,1,1,5,934,15,0.05712890625,1.07763671875,-1.083984375,74.951171875,71.044921875,-64.88037109375,-275.92819652383406,-19.982289336316178,154.4575243942866,1745594611.99865
313,1,1,5,949,15,-0.48095703125,1.9384765625,0.0673828125,61.6455078125,79.4677734375,-67.93212890625,-286.40631274020535,-9.50417311994493,136.40416684683126,1745594612.0058234
314,1,1,5,964,15,-0.65234375,1.02294921875,0.08935546875,43.8232421875,26.3671875,-52.24609375,-284.90943899500945,-0.5229306487695766,155.96197085657457,1745594612.0122337
315,1,1,5,979,15,-0.10791015625,1.08203125,0.0029296875,35.64453125,-56.15234375,-49.25537109375,-283.4125652498136,15.94268054838525,122.86414868623974,1745594612.0187323
316,1,1,5,994,15,0.00341796875,1.03515625,-0.0234375,27.64892578125,-92.83447265625,-47.66845703125,-269.9407015430505,2.4708168416222125,142.42195269598304,1745594612.0274253
317,1,1,6,9,15,0.39404296875,0.990234375,0.041015625,27.9541015625,-84.1064453125,-48.88916015625,-287.90318648540125,9.95518556760167,137.9086133091192,1745594612.0339272
318,1,1,6,24,15,0.50341796875,0.97412109375,-0.17822265625,26.9775390625,-45.8984375,-53.8330078125,-277.42507026902996,-3.5166781391613586,131.89082745996743,1745594612.102562
319,1,1,6,39,15,0.36767578125,0.953125,-0.0947265625,27.34375,-10.1318359375,-54.0771484375,-293.8906814661848,11.452059312797573,149.94418500742276,1745594612.109732
320,1,1,6,54,15,0.2158203125,1.00634765625,-0.09521484375,23.62060546875,-1.708984375,-55.6640625,-281.9156915046177,24.923923019560604,134.8997203845433,1745594612.116186
321,1,1,6,69,15,0.16162109375,1.03857421875,-0.20947265625,18.61572265625,-15.07568359375,-54.931640625,-284.90943899500945,17.439554293581136,134.8997203845433,1745594612.122608
322,1,1,6,84,15,0.18359375,0.99658203125,-0.2021484375,11.474609375,-34.85107421875,-54.87060546875,-292.39380772098895,24.923923019560604,121.3597022239518,1745594612.1311762
323,1,1,6,99,15,0.18798828125,0.984375,-0.0849609375,6.8359375,-44.677734375,-54.50439453125,-302.8719239373602,24.923923019560604,134.8997203845433,1745594612.1429317
324,1,1,6,114,15,0.26513671875,0.98681640625,-0.06103515625,7.2021484375,-36.43798828125,-54.5654296875,-283.4125652498136,26.420796764756492,136.40416684683126,1745594612.149462
325,1,1,6,129,15,0.2373046875,0.97216796875,-0.0810546875,8.7890625,-22.94921875,-56.7626953125,-292.39380772098895,20.433301783972926,158.97086378115046,1745594612.1559298
326,1,1,6,144,15,0.1044921875,0.9892578125,-0.1044921875,8.544921875,-16.66259765625,-58.7158203125,-296.8844289565766,26.420796764756492,136.40416684683126,1745594612.1623302
327,1,1,6,159,15,0.09716796875,1.00244140625,-0.08642578125,8.85009765625,-17.4560546875,-57.80029296875,-284.90943899500945,20.433301783972926,134.8997203845433,1745594612.1688628
328,1,1,6,174,15,0.119140625,1.0302734375,-0.13818359375,9.1552734375,-17.15087890625,-56.884765625,-286.40631274020535,29.41454425514828,146.93529208284687,1745594612.1753511
329,1,1,6,189,15,0.1171875,0.99755859375,-0.1484375,8.11767578125,-17.4560546875,-55.48095703125,-281.9156915046177,35.40203923593186,137.9086133091192,1745594612.1820142
330,1,1,6,204,15,0.06494140625,1.04443359375,-0.11865234375,6.7138671875,-17.88330078125,-54.50439453125,-287.90318648540125,30.911418000344167,137.9086133091192,1745594612.263944
331,1,1,6,219,15,0.0615234375,1.0234375,-0.13330078125,5.18798828125,-20.01953125,-54.0771484375,-287.90318648540125,35.40203923593186,137.9086133091192,1745594612.2705007
332,1,1,6,234,15,0.04736328125,1.03369140625,-0.15478515625,5.37109375,-20.81298828125,-53.7109375,-295.3875552113807,45.8801554523031,137.9086133091192,1745594612.2770834
333,1,1,6,249,15,0.029296875,1.00732421875,-0.12548828125,4.39453125,-21.484375,-52.3681640625,-281.9156915046177,35.40203923593186,131.89082745996743,1745594612.2835047
334,1,1,6,264,15,0.00634765625,1.03173828125,-0.12744140625,4.45556640625,-22.3388671875,-50.9033203125,-286.40631274020535,26.420796764756492,136.40416684683126,1745594612.2902277
335,1,1,6,279,15,-0.0380859375,1.01220703125,-0.1806640625,4.2724609375,-23.62060546875,-49.86572265625,-275.92819652383406,33.90516549073595,125.87304161081563,1745594612.2974432
336,1,1,6,294,15,-0.0078125,1.00732421875,-0.1376953125,2.9296875,-21.91162109375,-50.29296875,-284.90943899500945,45.8801554523031,131.89082745996743,1745594612.3038564
337,1,1,6,309,15,-0.021484375,1.01708984375,-0.1640625,1.953125,-22.15576171875,-49.9267578125,-277.42507026902996,30.911418000344167,145.43084562055893,1745594612.3104029
338,1,1,6,324,15,-0.009765625,1.0498046875,-0.1728515625,0.54931640625,-26.67236328125,-49.13330078125,-268.4438277978546,39.892660471519534,133.39527392225537,1745594612.3175948
339,1,1,6,339,15,0.02197265625,1.06298828125,-0.16162109375,-0.18310546875,-32.1044921875,-51.26953125,-262.4563328170711,47.377029197499,146.93529208284687,1745594612.324018
340,1,1,6,354,15,0.04296875,1.09765625,-0.12646484375,0.06103515625,-35.09521484375,-54.62646484375,-269.9407015430505,42.886407961911324,151.4486314697107,1745594612.3304725
341,1,1,6,369,15,0.12060546875,1.16357421875,-0.02294921875,0.0,-36.19384765625,-59.814453125,-240.00322663913266,54.86139792347845,128.88193453539154,1745594612.3391154
342,1,1,6,384,15,0.0244140625,1.19287109375,0.001953125,2.99072265625,-35.0341796875,-68.78662109375,-268.4438277978546,47.377029197499,146.93529208284687,1745594612.345624
343,1,1,6,399,15,0.07958984375,1.18603515625,0.01611328125,8.056640625,-33.5693359375,-78.4912109375,-262.4563328170711,54.86139792347845,143.926399158271,1745594612.3580844
344,1,1,6,414,15,0.087890625,1.1142578125,0.07763671875,11.41357421875,-30.45654296875,-88.56201171875,-256.4688378362875,48.87390294269489,142.42195269598304,1745594612.364524
345,1,1,6,429,15,0.10498046875,1.14892578125,0.021484375,15.2587890625,-26.2451171875,-100.09765625,-238.50635289393676,63.84264039465382,134.8997203845433,1745594612.3710191
346,1,1,6,444,15,0.15380859375,1.09716796875,-0.0009765625,17.822265625,-25.93994140625,-117.49267578125,-240.00322663913266,57.85514541387024,139.41305977140715,1745594612.3783686
347,1,1,6,459,15,0.2177734375,1.31103515625,-0.05859375,19.1650390625,-23.4375,-135.8642578125,-238.50635289393676,60.84889290426203,137.9086133091192,1745594612.384897
348,1,1,6,474,15,0.1337890625,1.283203125,-0.0703125,23.92578125,-15.80810546875,-151.9775390625,-237.0094791487409,75.81763035622096,149.94418500742276,1745594612.3934305
349,1,1,6,489,15,0.08984375,1.4052734375,-0.02587890625,29.23583984375,-19.4091796875,-165.6494140625,-234.0157316583491,90.78636780817989,149.94418500742276,1745594612.400464
350,1,1,6,504,15,0.13818359375,1.48583984375,-0.02587890625,33.63037109375,-22.64404296875,-176.1474609375,-223.53761544197786,83.30199908220041,163.4842031680143,1745594612.4069357
351,1,1,6,519,15,0.13232421875,1.57568359375,0.00732421875,38.63525390625,-23.49853515625,-182.2509765625,-216.05324671599837,101.26448402455115,154.4575243942866,1745594612.4133358
352,1,1,6,534,15,0.1552734375,1.7001953125,0.08544921875,45.41015625,-41.9921875,-179.26025390625,-229.5251104227614,101.26448402455115,139.41305977140715,1745594612.4204693
353,1,1,6,549,15,0.724609375,2.0791015625,0.15478515625,52.24609375,-70.80078125,-179.19921875,-205.57513049962714,116.23322147651005,146.93529208284687,1745594612.4269412
354,1,1,6,564,15,0.50439453125,1.6611328125,0.06005859375,61.82861328125,-72.44873046875,-159.72900390625,-208.56887799001893,111.74260024092237,154.4575243942866,1745594612.4334023
355,1,1,6,579,15,-0.337890625,1.59033203125,-0.14794921875,63.78173828125,-60.05859375,-173.40087890625,-201.08450926403944,126.7113376928813,167.99754255487815,1745594612.4423792
356,1,1,6,594,15,-0.5537109375,1.697265625,-0.5703125,36.43798828125,-83.92333984375,-189.94140625,-199.58763551884357,138.68632765444846,151.4486314697107,1745594612.4956782
357,1,1,6,609,15,-0.27197265625,1.2998046875,-0.67138671875,56.640625,-39.36767578125,-171.08154296875,-183.12202432168874,129.7050851832731,167.99754255487815,1745594612.5086098
358,1,1,6,624,15,-0.29150390625,1.2841796875,-0.47216796875,42.17529296875,-24.2919921875,-161.92626953125,-192.1032667928641,143.17694889003613,158.97086378115046,1745594612.5150623
359,1,1,6,639,15,0.09814453125,1.08203125,-0.24365234375,34.36279296875,-45.59326171875,-110.3515625,-189.10951930247234,153.6550651064074,161.97975670572634,1745594612.5220807
360,1,1,6,654,15,0.13427734375,0.546875,-0.236328125,25.5126953125,-69.88525390625,-64.8193359375,-190.6063930476682,162.63630757758276,157.4664173188625,1745594612.5286355
361,1,1,6,669,15,-0.22314453125,0.0908203125,-0.384765625,18.24951171875,-77.20947265625,-24.47509765625,-187.6126455572764,155.15193885160326,178.52866779089373,1745594612.535054
362,1,1,6,684,15,0.08349609375,0.189453125,-0.3203125,12.20703125,-59.75341796875,3.173828125,-211.5626254804107,165.63005506797452,181.53756071546965,1745594612.5893512
363,1,1,6,699,15,0.33935546875,0.19140625,-0.1181640625,5.92041015625,-36.31591796875,43.5791015625,-219.0469942063902,173.11442379395402,171.006435479454,1745594612.5979207
364,1,1,6,714,15,0.38720703125,0.21435546875,-0.03857421875,3.60107421875,-6.40869140625,79.40673828125,-211.5626254804107,180.59879251993345,192.06868595148526,1745594612.626994
365,1,1,6,729,15,0.28857421875,0.2626953125,0.0029296875,-3.11279296875,9.765625,115.234375,-240.00322663913266,173.11442379395402,192.06868595148526,1745594612.6340637
366,1,1,6,744,15,0.1689453125,0.2939453125,-0.00439453125,-13.12255859375,26.123046875,146.3623046875,-248.98446911030803,185.08941375552112,175.51977486631785,1745594612.6412234
367,1,1,6,759,15,0.087890625,0.34130859375,-0.0390625,-23.49853515625,44.73876953125,175.29296875,-266.9469540526587,192.57378248150061,172.51088194174199,1745594612.6772132
368,1,1,6,774,15,-0.13671875,0.53369140625,-0.08544921875,-30.029296875,60.302734375,200.927734375,-283.4125652498136,191.07690873630472,163.4842031680143,1745594612.7013237
369,1,1,6,789,15,-0.1259765625,0.51708984375,-0.068359375,-42.54150390625,58.4716796875,221.923828125,-295.3875552113807,189.58003499110882,175.51977486631785,1745594612.7086568
370,1,1,6,804,15,-0.12744140625,0.65673828125,-0.115234375,-45.10498046875,68.54248046875,242.67578125,-326.82190386049444,203.05189869787188,169.50198901716607,1745594612.7151241
371,1,1,6,819,15,-0.21630859375,0.8193359375,-0.1298828125,-51.7578125,75.439453125,255.92041015625,-344.78438880284517,200.05815120748005,155.96197085657457,1745594612.7215433
372,1,1,6,834,15,-0.21875,0.97509765625,-0.14306640625,-56.884765625,76.66015625,264.46533203125,-344.78438880284517,207.54251993345952,161.97975670572634,1745594612.7335796
373,1,1,6,849,15,-0.169921875,1.14208984375,-0.19873046875,-62.56103515625,77.7587890625,271.54541015625,-383.70310617793837,182.09566626512935,161.97975670572634,1745594612.7400594
374,1,1,6,864,15,-0.14794921875,1.29150390625,-0.19140625,-65.24658203125,81.6650390625,282.3486328125,-422.6218235530316,185.08941375552112,148.43973854513484,1745594612.746592
375,1,1,6,879,15,-0.205078125,1.36279296875,-0.1630859375,-69.76318359375,83.984375,285.7666015625,-437.5905610049905,174.6112975391499,145.43084562055893,1745594612.8109875
376,1,1,6,894,15,-0.2958984375,1.48583984375,-0.1171875,-72.81494140625,78.0029296875,287.17041015625,-449.5655509665577,152.1581913612115,149.94418500742276,1745594612.8174794
377,1,1,6,909,15,-0.33251953125,1.681640625,-0.1533203125,-76.96533203125,73.2421875,289.0625,-480.99989961567144,116.23322147651005,163.4842031680143,1745594612.9141288
378,1,1,6,924,15,-0.48828125,1.77490234375,-0.21484375,-81.60400390625,72.57080078125,289.61181640625,-494.47176332243447,95.27698904376757,158.97086378115046,1745594612.9206502
379,1,1,6,939,15,-0.69287109375,1.80712890625,-0.2646484375,-82.51953125,57.55615234375,287.841796875,-530.3967332071359,72.82388286582916,167.99754255487815,1745594612.927118
380,1,1,6,954,15,-0.8984375,1.8798828125,-0.2353515625,-78.125,25.81787109375,269.22607421875,-530.3967332071359,29.41454425514828,167.99754255487815,1745594612.943936
381,1,1,6,969,15,-0.8681640625,1.86572265625,-0.25244140625,-70.86181640625,7.080078125,250.9765625,-543.8685969138988,-0.5229306487695766,183.04200717775757,1745594612.95043
382,1,1,6,984,15,-0.7529296875,1.47119140625,-0.3203125,-61.21826171875,23.681640625,218.44482421875,-549.8560918946825,-36.44790053347101,183.04200717775757,1745594613.0096953
383,1,1,6,999,15,-1.009765625,1.23681640625,-0.38916015625,-44.43359375,40.83251953125,174.74365234375,-537.8811019331152,-48.422890495038146,195.07757887606115,1745594613.0162473
384,1,1,7,14,15,-1.35107421875,0.92529296875,-0.49853515625,-20.01953125,37.29248046875,124.0234375,-536.3842281879195,-91.83222910571904,214.63538288580446,1745594613.0226843
385,1,1,7,29,15,-1.5498046875,0.9580078125,-0.35400390625,3.23486328125,13.5498046875,64.39208984375,-533.3904806975277,-120.272830264441,204.10425764978882,1745594613.0395942
386,1,1,7,44,15,-1.376953125,0.98681640625,-0.291015625,11.5966796875,-3.60107421875,0.91552734375,-537.8811019331152,-100.81347157689439,216.1398293480924,1745594613.0460675
387,1,1,7,59,15,-1.01171875,0.91259765625,-0.3046875,40.58837890625,28.86962890625,-49.13330078125,-545.3654706590947,-118.77595651924511,213.13093642351652,1745594613.0524879
388,1,1,7,74,15,-0.3525390625,0.85498046875,-0.15576171875,41.93115234375,47.607421875,-128.173828125,-546.8623444042908,-99.3165978316985,201.09536472521296,1745594613.059165
389,1,1,7,89,15,2.98193359375,1.62646484375,0.60595703125,29.23583984375,32.5927734375,-42.8466796875,-536.3842281879195,-96.3228503413067,190.56423948919732,1745594613.0711873
390,1,1,7,104,15,0.54345703125,0.90380859375,0.4306640625,18.24951171875,89.90478515625,7.14111328125,-546.8623444042908,-81.35411288934777,190.56423948919732,1745594613.0777516
391,1,1,7,119,15,-0.37451171875,1.17333984375,0.13916015625,34.423828125,70.00732421875,-72.20458984375,-555.8435868754661,-79.85723914415189,189.05979302690938,1745594613.0845094
392,1,1,7,134,15,0.30419921875,1.61669921875,0.38525390625,28.86962890625,25.08544921875,-66.7724609375,-576.7998193082085,-72.37287041817243,174.0153284040299,1745594613.0921836
393,1,1,7,149,15,0.076171875,1.03271484375,-0.03369140625,42.17529296875,26.0009765625,-62.19482421875,-573.8060718178168,-48.422890495038146,160.4753102434384,1745594613.0987625
394,1,1,7,164,15,-0.037109375,1.04052734375,-1.1962890625,62.43896484375,41.19873046875,-66.46728515625,-555.8435868754661,-48.422890495038146,160.4753102434384,1745594613.1052542
395,1,1,7,179,15,-0.05029296875,1.9111328125,0.17626953125,54.3212890625,45.95947265625,-67.5048828125,-572.3091980726209,-51.41663798542993,158.97086378115046,1745594613.1119056
396,1,1,7,194,15,-0.48583984375,1.064453125,0.3115234375,40.0390625,29.23583984375,-44.5556640625,-575.3029455630127,-21.479163081512073,155.96197085657457,1745594613.118459
397,1,1,7,209,15,0.009765625,0.93603515625,-0.08251953125,44.25048828125,-24.96337890625,-41.68701171875,-573.8060718178168,-30.460405552687433,154.4575243942866,1745594613.1248996
398,1,1,7,224,15,0.2958984375,1.07861328125,-0.1591796875,36.4990234375,-37.4755859375,-44.25048828125,-594.7623042505593,-24.47291057190386,139.41305977140715,1745594613.131355
399,1,1,7,239,15,0.18896484375,1.04052734375,-0.0419921875,34.423828125,-34.912109375,-44.86083984375,-582.7873142889921,-21.479163081512073,134.8997203845433,1745594613.1380386
400,1,1,7,254,15,0.2802734375,0.984375,-0.13330078125,31.8603515625,-32.3486328125,-45.34912109375,-576.7998193082085,-19.982289336316178,109.32413052564823,1745594613.1468434
401,1,1,7,269,15,0.2978515625,0.96728515625,-0.17041015625,27.83203125,-24.84130859375,-43.64013671875,-587.2779355245798,-12.497920610336719,119.85525576166384,1745594613.165154
402,1,1,7,284,15,0.2578125,0.9814453125,-0.16357421875,24.71923828125,-19.6533203125,-41.8701171875,-597.756051740951,-6.510425629553148,125.87304161081563,1745594613.1797714
403,1,1,7,299,15,0.27001953125,1.01025390625,-0.1259765625,20.263671875,-26.55029296875,-43.0908203125,-590.2716830149716,2.4708168416222125,107.81968406336027,1745594613.186292
404,1,1,7,314,15,0.29150390625,0.974609375,-0.138671875,14.83154296875,-31.43310546875,-45.34912109375,-591.7685567601675,8.458311822405784,112.33302345022412,1745594613.192877
405,1,1,7,329,15,0.24462890625,0.96337890625,-0.12060546875,12.39013671875,-36.31591796875,-46.38671875,-590.2716830149716,-18.48541559112029,107.81968406336027,1745594613.199396
406,1,1,7,344,15,0.26171875,0.9501953125,-0.09375,10.92529296875,-36.4990234375,-49.62158203125,-593.2654305053634,-0.5229306487695766,89.76632651590494,1745594613.2189856
407,1,1,7,359,15,0.2666015625,0.97265625,-0.1025390625,11.5966796875,-29.11376953125,-50.9033203125,-597.756051740951,11.452059312797573,98.7930052896326,1745594613.248053
408,1,1,7,374,15,0.20849609375,0.98974609375,-0.10693359375,11.962890625,-20.56884765625,-52.1240234375,-606.7372942121265,24.923923019560604,110.82857698793617,1745594613.2544832
409,1,1,7,389,15,0.11865234375,1.00830078125,-0.10400390625,11.41357421875,-18.00537109375,-52.001953125,-603.7435467217347,27.91767050995239,97.28855882734466,1745594613.2620306
410,1,1,7,404,15,0.09765625,1.01611328125,-0.12890625,10.92529296875,-16.66259765625,-50.47607421875,-591.7685567601675,39.892660471519534,101.80189821420849,1745594613.2708657
411,1,1,7,419,15,0.1005859375,1.02685546875,-0.146484375,9.33837890625,-18.37158203125,-48.583984375,-585.7810617793839,24.923923019560604,113.83746991251206,1745594613.277421
412,1,1,7,434,15,0.11865234375,1.0048828125,-0.16845703125,6.77490234375,-20.263671875,-49.072265625,-606.7372942121265,38.395786726323635,103.30634467649644,1745594613.2847147
413,1,1,7,449,15,0.09765625,1.005859375,-0.16357421875,4.45556640625,-21.78955078125,-48.64501953125,-593.2654305053634,35.40203923593186,100.29745175192055,1745594613.291248
414,1,1,7,464,15,0.08642578125,1.01416015625,-0.1337890625,3.5400390625,-22.76611328125,-48.33984375,-578.2966930534044,53.364524178282565,89.76632651590494,1745594613.2977662
415,1,1,7,479,15,0.03857421875,1.0068359375,-0.11962890625,3.84521484375,-21.54541015625,-47.91259765625,-591.7685567601675,36.898912981127744,98.7930052896326,1745594613.305092
416,1,1,7,494,15,0.06298828125,0.99755859375,-0.125,4.33349609375,-21.3623046875,-48.03466796875,-584.284188034188,69.83013537543738,104.8107911387844,1745594613.3115137
417,1,1,7,509,15,0.08935546875,1.0048828125,-0.14599609375,4.57763671875,-19.1650390625,-49.25537109375,-594.7623042505593,62.345766649457914,104.8107911387844,1745594613.3264334
418,1,1,7,524,15,0.06640625,0.99365234375,-0.130859375,4.82177734375,-17.88330078125,-48.33984375,-591.7685567601675,83.30199908220041,98.7930052896326,1745594613.332876
419,1,1,7,539,15,0.0771484375,1.01171875,-0.11474609375,5.43212890625,-19.04296875,-48.40087890625,-585.7810617793839,71.32700912063329,107.81968406336027,1745594613.3393402
420,1,1,7,554,15,0.052734375,0.9853515625,-0.134765625,5.31005859375,-19.71435546875,-49.98779296875,-585.7810617793839,84.79887282739631,97.28855882734466,1745594613.3567643
421,1,1,7,569,15,0.08740234375,1.021484375,-0.1552734375,4.57763671875,-19.47021484375,-53.3447265625,-582.7873142889921,84.79887282739631,103.30634467649644,1745594613.3632073
422,1,1,7,584,15,0.04345703125,1.03076171875,-0.1826171875,3.35693359375,-17.4560546875,-57.18994140625,-567.8185768370332,102.76135776974702,97.28855882734466,1745594613.3714561
423,1,1,7,599,15,0.04150390625,1.07275390625,-0.158203125,3.60107421875,-19.8974609375,-62.255859375,-575.3029455630127,95.27698904376757,100.29745175192055,1745594613.3780456
424,1,1,7,614,15,0.03759765625,1.0576171875,-0.15380859375,4.69970703125,-26.06201171875,-67.5048828125,-576.7998193082085,104.25823151494292,80.73964774217725,1745594613.4185536
425,1,1,7,629,15,0.01171875,1.078125,-0.1416015625,5.92041015625,-30.70068359375,-70.49560546875,-563.3279556014455,116.23322147651005,98.7930052896326,1745594613.4249902
426,1,1,7,644,15,0.0556640625,1.095703125,-0.13623046875,8.056640625,-34.66796875,-76.96533203125,-572.3091980726209,138.68632765444846,107.81968406336027,1745594613.4323049
427,1,1,7,659,15,0.07275390625,1.15771484375,-0.0615234375,7.75146484375,-35.33935546875,-84.716796875,-554.3467131302702,125.21446394768543,97.28855882734466,1745594613.444008
428,1,1,7,674,15,0.04833984375,1.17529296875,-0.009765625,8.36181640625,-28.99169921875,-90.9423828125,-542.3717231687029,122.22071645729363,101.80189821420849,1745594613.4514258
429,1,1,7,689,15,0.01318359375,1.1787109375,0.0341796875,13.18359375,-22.0947265625,-101.318359375,-555.8435868754661,137.18945390925256,88.26188005361698,1745594613.457942
430,1,1,7,704,15,0.0322265625,1.25537109375,0.046875,14.16015625,-20.263671875,-106.38427734375,-554.3467131302702,174.6112975391499,103.30634467649644,1745594613.4643776
431,1,1,7,719,15,-0.04833984375,1.1689453125,0.06640625,16.9677734375,-16.845703125,-119.44580078125,-552.8498393850743,170.1206763035622,112.33302345022412,1745594613.472463
432,1,1,7,734,15,0.0029296875,1.21337890625,-0.015625,18.98193359375,-17.02880859375,-129.150390625,-528.89985946194,177.60504502954169,107.81968406336027,1745594613.4790006
433,1,1,7,749,15,0.03662109375,1.27197265625,-0.06787109375,18.5546875,-15.380859375,-139.95361328125,-533.3904806975277,200.05815120748005,107.81968406336027,1745594613.4909215
434,1,1,7,764,15,0.02880859375,1.28662109375,-0.09228515625,25.2685546875,-17.39501953125,-152.16064453125,-497.4655108128262,235.98312109218148,89.76632651590494,1745594613.4975796
435,1,1,7,779,15,0.04052734375,1.43798828125,-0.10546875,30.09033203125,-22.15576171875,-159.3017578125,-500.459258303218,218.02063614983078,97.28855882734466,1745594613.504013
436,1,1,7,794,15,0.10986328125,1.478515625,-0.06689453125,32.28759765625,-28.62548828125,-165.34423828125,-500.459258303218,231.49249985659384,103.30634467649644,1745594613.5105689
437,1,1,7,809,15,0.09765625,1.484375,-0.00048828125,38.2080078125,-37.90283203125,-164.24560546875,-497.4655108128262,238.97686858257327,89.76632651590494,1745594613.5170636
438,1,1,7,824,15,0.47314453125,1.8134765625,0.20947265625,43.212890625,-51.7578125,-163.0859375,-488.4842683416509,247.95811105374864,91.27077297819287,1745594613.5246472
439,1,1,7,839,15,0.6923828125,1.7783203125,0.12353515625,59.326171875,-56.70166015625,-153.4423828125,-486.987394596455,264.42372225090344,110.82857698793617,1745594613.5379193
440,1,1,7,854,15,0.21728515625,1.6728515625,0.1611328125,64.75830078125,-53.5888671875,-153.4423828125,-467.52803590890835,265.92059599609934,104.8107911387844,1745594613.544346
441,1,1,7,869,15,-0.81103515625,1.998046875,-0.267578125,52.55126953125,-59.02099609375,-180.84716796875,-461.5405409281248,289.87057591923366,100.29745175192055,1745594614.4510505
442,1,1,7,884,15,-0.14208984375,1.56005859375,-0.6533203125,41.50390625,-91.064453125,-177.1240234375,-442.0811822405782,286.87682842884186,98.7930052896326,1745594615.0518475
443,1,1,7,899,15,-0.32861328125,1.30615234375,-0.65478515625,51.513671875,-4.94384765625,-173.88916015625,-427.1124447886193,295.8580709000172,103.30634467649644,1745594615.0583687
444,1,1,7,914,15,-0.39697265625,1.28125,-0.18603515625,44.73876953125,-21.3623046875,-149.10888671875,-431.60306602420695,312.323682097172,88.26188005361698,1745594615.0893772
445,1,1,7,929,15,-0.0791015625,0.9560546875,-0.26416015625,34.1796875,-68.42041015625,-92.7734375,-428.60931853381516,327.29241954913095,91.27077297819287,1745594615.0958881
446,1,1,7,944,15,-0.05908203125,0.40283203125,-0.330078125,27.099609375,-106.99462890625,-41.44287109375,-440.5843084953823,318.3111770779556,97.28855882734466,1745594615.1023095
447,1,1,7,959,15,-0.17138671875,0.23193359375,-0.49169921875,19.8974609375,-99.365234375,-17.08984375,-436.09368725979465,319.80805082315146,109.32413052564823,1745594615.1093273
448,1,1,7,974,15,0.20556640625,0.24658203125,-0.27099609375,6.40869140625,-76.84326171875,15.31982421875,-461.5405409281248,307.8330608615844,116.84636283708795,1745594615.1158202
449,1,1,7,989,15,0.34912109375,0.26025390625,-0.1298828125,4.21142578125,-36.2548828125,53.1005859375,-457.0499196925371,309.3299346067803,119.85525576166384,1745594615.1222262
450,1,1,8,4,15,0.3896484375,0.28515625,-0.04443359375,-2.86865234375,-7.6904296875,84.77783203125,-485.4905208512591,291.3674496644295,115.34191637480001,1745594615.1291747
451,1,1,8,19,15,0.31396484375,0.26904296875,0.02490234375,-9.46044921875,14.83154296875,118.95751953125,-491.4780158320427,286.87682842884186,125.87304161081563,1745594615.2334373
452,1,1,8,34,15,0.15185546875,0.32421875,0.0849609375,-19.6533203125,26.67236328125,148.4375,-524.4092382263523,265.92059599609934,119.85525576166384,1745594615.240996
453,1,1,8,49,15,0.0322265625,0.4892578125,0.1005859375,-43.15185546875,33.38623046875,191.10107421875,-525.9061119715482,256.939353524924,121.3597022239518,1745594615.247507
454,1,1,8,64,15,-0.0615234375,0.40234375,0.021484375,-45.10498046875,34.1796875,209.77783203125,-563.3279556014455,222.51125738541847,109.32413052564823,1745594615.2548435
455,1,1,8,79,15,-0.12353515625,0.5947265625,-0.05322265625,-54.13818359375,36.56005859375,224.7314453125,-584.284188034188,212.0331411690472,122.86414868623974,1745594615.2613556
456,1,1,8,94,15,-0.06787109375,0.6943359375,-0.0126953125,-59.4482421875,46.93603515625,245.78857421875,-615.7185366833017,155.15193885160326,122.86414868623974,1745594615.2677999
457,1,1,8,109,15,-0.03369140625,0.8291015625,-0.00341796875,-60.4248046875,62.56103515625,265.380859375,-635.1778953708483,143.17694889003613,116.84636283708795,1745594615.2751126
458,1,1,8,124,15,-0.05126953125,0.94189453125,-0.0302734375,-63.8427734375,72.20458984375,276.06201171875,-662.1216227843745,72.82388286582916,98.7930052896326,1745594615.2815616
459,1,1,8,139,15,-0.095703125,1.07080078125,-0.09814453125,-67.0166015625,76.47705078125,285.33935546875,-683.077855217117,26.420796764756492,119.85525576166384,1745594615.289516
460,1,1,8,154,15,-0.07958984375,1.2275390625,-0.1123046875,-70.556640625,82.8857421875,296.93603515625,-708.5247088854471,-34.95102678827511,133.39527392225537,1745594615.29684
461,1,1,8,169,15,-0.1328125,1.369140625,-0.171875,-73.91357421875,87.5244140625,301.33056640625,-713.0153301210347,-91.83222910571904,124.36859514852769,1745594615.3034008
462,1,1,8,184,15,-0.17919921875,1.59326171875,-0.169921875,-77.08740234375,90.6982421875,303.1005859375,-720.4996988470143,-184.6384013078644,137.9086133091192,1745594615.3099058
463,1,1,8,199,15,-0.2919921875,1.88671875,-0.27734375,-79.1015625,94.90966796875,307.67822265625,-693.5559714334881,-216.07274995697813,154.4575243942866,1745594615.317277
464,1,1,8,214,15,-0.5009765625,2.001953125,-0.27978515625,-80.74951171875,88.80615234375,319.4580078125,-660.6247490391786,-320.85391212069067,175.51977486631785,1745594615.323711
465,1,1,8,229,15,-0.95556640625,1.98046875,-0.26806640625,-80.50537109375,66.22314453125,321.1669921875,-654.6372540583949,-376.2382406929387,178.52866779089373,1745594615.330182
466,1,1,8,244,15,-1.1923828125,2.13037109375,-0.22412109375,-81.298828125,27.4658203125,300.59814453125,-590.2716830149716,-449.5850542075374,196.58202533834913,1745594615.3374841
467,1,1,8,259,15,-0.9072265625,1.91162109375,-0.34033203125,-76.416015625,15.0146484375,267.2119140625,-545.3654706590947,-498.98188779900187,208.61759703665268,1745594615.3454323
468,1,1,8,274,15,-0.8759765625,1.4326171875,-0.65478515625,-57.31201171875,54.0771484375,223.81591796875,-483.99364710606324,-549.8755951356621,231.18429397097185,1745594615.351871
469,1,1,8,289,15,-1.46240234375,0.95947265625,-0.65478515625,-35.58349609375,60.791015625,160.58349609375,-394.18122239430966,-567.838080078013,231.18429397097185,1745594615.3592386
470,1,1,8,304,15,-1.82470703125,0.81396484375,-0.5517578125,-2.0751953125,26.85546875,102.35595703125,-377.71561119715483,-572.3287013136006,255.25543736757902,1745594615.3657327
471,1,1,8,319,15,-1.85986328125,0.92138671875,-0.435546875,18.9208984375,-5.859375,26.85546875,-329.81565135088624,-587.2974387655595,256.75988382986696,1745594615.3788173
472,1,1,8,334,15,-1.431640625,1.03515625,-0.40869140625,25.390625,-11.3525390625,-34.1796875,-316.3437876441232,-600.7693024723226,252.2465444430031,1745594615.385276
473,1,1,8,349,15,-0.5947265625,0.54736328125,-0.13427734375,46.20361328125,30.45654296875,-105.5908203125,-320.8344088797109,-590.2911862559513,252.2465444430031,1745594615.3934948
474,1,1,8,364,15,3.27734375,1.87646484375,0.9404296875,23.681640625,21.728515625,-65.36865234375,-310.3562926633397,-603.7630499627144,265.78656260359463,1745594615.4008698
475,1,1,8,379,15,0.3310546875,0.7236328125,0.61181640625,14.404296875,73.73046875,-0.48828125,-335.80314633166984,-591.7880600011472,264.2821161413067,1745594615.4073434
476,1,1,8,394,15,-0.193359375,1.248046875,0.2314453125,37.78076171875,68.29833984375,-85.0830078125,-298.3813027017725,-600.7693024723226,270.29990199045847,1745594615.4137862
477,1,1,8,409,15,0.47705078125,1.5673828125,0.38427734375,34.11865234375,35.09521484375,-75.927734375,-313.3500401537314,-590.2911862559513,283.83992015105,1745594615.4210808
478,1,1,8,424,15,0.12158203125,1.134765625,-0.09912109375,51.33056640625,48.40087890625,-77.45361328125,-310.3562926633397,-585.8005650203636,255.25543736757902,1745594615.427549
479,1,1,8,439,15,0.26513671875,1.03369140625,-1.25390625,80.62744140625,66.2841796875,-72.75390625,-314.8469138989273,-569.3349538232089,277.8221343018982,1745594615.4339736
480,1,1,8,454,15,0.0537109375,1.5166015625,0.03857421875,77.1484375,79.65087890625,-68.7255859375,-310.3562926633397,-590.2911862559513,294.37104538706564,1745594615.5211275
481,1,1,8,469,15,-0.97314453125,1.42236328125,0.3212890625,34.24072265625,62.80517578125,-48.7060546875,-332.809398841278,-573.8255750587965,274.8132413773223,1745594615.5276384
482,1,1,8,484,15,-0.1611328125,0.96630859375,0.04833984375,49.13330078125,-22.5830078125,-42.66357421875,-334.3062725864739,-542.3912264096828,273.30879491503435,1745594615.534066
483,1,1,8,499,15,0.00439453125,1.158203125,-0.06787109375,36.2548828125,-56.33544921875,-46.44775390625,-337.30002007686574,-564.8443325876212,286.84881307562586,1745594615.5553772
484,1,1,8,514,15,0.0908203125,1.03662109375,-0.00732421875,30.2734375,-83.92333984375,-47.2412109375,-353.7656312740205,-558.8568376068376,277.8221343018982,1745594615.5627203
485,1,1,8,529,15,0.33642578125,1.0302734375,-0.0732421875,25.93994140625,-75.8056640625,-49.49951171875,-362.74687374519584,-567.838080078013,265.78656260359463,1745594615.5693913
486,1,1,8,544,15,0.4384765625,0.998046875,-0.1591796875,27.587890625,-36.43798828125,-49.8046875,-371.72811621637123,-545.3849739000744,253.75099090529108,1745594615.575868
487,1,1,8,559,15,0.35009765625,0.951171875,-0.16552734375,22.88818359375,-17.51708984375,-52.79541015625,-380.70935868754657,-560.3537113520335,238.7065262824116,1745594615.5829093
488,1,1,8,574,15,0.2607421875,0.9794921875,-0.1142578125,19.4091796875,-7.9345703125,-55.72509765625,-379.2124849423507,-558.8568376068376,237.20207982012366,1745594615.5897615
489,1,1,8,589,15,0.21728515625,1.0029296875,-0.13818359375,15.9912109375,-12.02392578125,-56.57958984375,-412.1437073366603,-549.8755951356621,231.18429397097185,1745594615.5977764
490,1,1,8,604,15,0.22802734375,0.97412109375,-0.15478515625,12.63427734375,-21.3623046875,-57.0068359375,-409.14995984626853,-546.8818476452703,225.1665081218201,1745594615.60483
491,1,1,8,619,15,0.17919921875,0.96044921875,-0.1005859375,9.521484375,-28.3203125,-59.6923828125,-416.634328572248,-539.397478919291,228.17540104639596,1745594615.6113253
492,1,1,8,634,15,0.228515625,0.97265625,-0.068359375,9.58251953125,-26.2451171875,-59.6923828125,-418.1312023174439,-530.4162364481157,219.1487222726683,1745594615.617775
493,1,1,8,649,15,0.1611328125,1.00830078125,-0.0478515625,10.68115234375,-16.845703125,-59.02099609375,-428.60931853381516,-537.9006051740951,213.13093642351652,1745594615.6250958
494,1,1,8,664,15,0.11181640625,1.02099609375,-0.048828125,11.1083984375,-14.0380859375,-58.837890625,-431.60306602420695,-548.3787213904662,205.6087041120768,1745594615.631588
495,1,1,8,679,15,0.123046875,1.01611328125,-0.11572265625,9.70458984375,-17.02880859375,-58.7158203125,-449.5655509665577,-533.4099839385074,202.59981118750088,1745594615.6381261
496,1,1,8,694,15,0.13623046875,1.02392578125,-0.1396484375,8.97216796875,-16.357421875,-57.43408203125,-439.0874347501864,-522.9318677221362,198.08647180063704,1745594615.6582239
497,1,1,8,709,15,0.06201171875,1.02099609375,-0.14501953125,7.26318359375,-19.1650390625,-56.640625,-449.5655509665577,-533.4099839385074,219.1487222726683,1745594615.6656184
498,1,1,8,724,15,0.03662109375,1.033203125,-0.12451171875,5.92041015625,-20.5078125,-56.396484375,-455.5530459473413,-536.4037314288992,193.5731324137732,1745594615.6720612
499,1,1,8,739,15,0.03515625,0.9970703125,-0.12451171875,4.638671875,-21.42333984375,-55.5419921875,-443.5780559857741,-521.4349939769403,196.58202533834913,1745594615.678524
500,1,1,8,754,15,0.0224609375,1.0146484375,-0.1142578125,4.638671875,-21.3623046875,-55.17578125,-460.0436671829289,-519.9381202317444,202.59981118750088,1745594615.6856287
501,1,1,8,769,15,-0.0107421875,1.021484375,-0.1162109375,5.7373046875,-22.94921875,-52.79541015625,-466.03116216371245,-507.9631302701772,190.56423948919732,1745594615.6924949
502,1,1,8,784,15,-0.01513671875,1.0185546875,-0.11572265625,5.37109375,-21.78955078125,-51.6357421875,-466.03116216371245,-507.9631302701772,190.56423948919732,1745594615.7002914
503,1,1,8,799,15,-0.0439453125,1.00537109375,-0.1591796875,4.82177734375,-19.4091796875,-50.537109375,-466.03116216371245,-518.4412464865485,186.0509001023335,1745594615.7068613
504,1,1,8,814,15,-0.0439453125,1.02197265625,-0.14208984375,3.11279296875,-18.06640625,-49.25537109375,-475.01240463488784,-522.9318677221362,184.54645364004554,1745594615.7132998
505,1,1,8,829,15,-0.0185546875,1.02392578125,-0.150390625,2.01416015625,-21.484375,-48.828125,-478.00615212527964,-509.46000401537316,181.53756071546965,1745594615.7254896
506,1,1,8,844,15,0.04248046875,1.01953125,-0.17041015625,2.3193359375,-25.146484375,-50.537109375,-470.52178339930015,-494.49126656341423,178.52866779089373,1745594615.7319298
507,1,1,8,859,15,0.0302734375,1.05322265625,-0.18310546875,2.38037109375,-27.03857421875,-53.955078125,-472.01865714449605,-500.47876154419777,183.04200717775757,1745594615.7383811
508,1,1,8,874,15,0.05810546875,1.0244140625,-0.16357421875,2.74658203125,-28.6865234375,-58.53271484375,-480.99989961567144,-491.49751907302243,178.52866779089373,1745594617.1535337
509,1,1,8,889,15,0.0517578125,1.109375,-0.1240234375,1.953125,-28.564453125,-64.88037109375,-494.47176332243447,-492.99439281821833,183.04200717775757,1745594617.1610308
510,1,1,8,904,15,0.07080078125,1.1162109375,-0.02734375,4.638671875,-30.3955078125,-71.96044921875,-500.459258303218,-492.99439281821833,175.51977486631785,1745594617.1677256
511,1,1,8,919,15,0.03173828125,1.13916015625,-0.00439453125,5.18798828125,-28.4423828125,-80.50537109375,-495.9686370676303,-481.0194028566512,160.4753102434384,1745594617.174147
512,1,1,8,934,15,0.0341796875,1.224609375,0.0107421875,9.09423828125,-20.3857421875,-95.03173828125,-491.4780158320427,-473.5350341306717,171.006435479454,1745594617.1864135
513,1,1,8,949,15,0.09033203125,1.1953125,0.02001953125,11.71875,-18.9208984375,-103.69873046875,-491.4780158320427,-463.05691791430047,163.4842031680143,1745594617.192888
514,1,1,8,964,15,0.07373046875,1.23291015625,-0.02783203125,12.6953125,-17.2119140625,-116.51611328125,-498.9623845580221,-458.5662966787128,163.4842031680143,1745594617.199435
515,1,1,8,979,15,0.10498046875,1.25830078125,-0.048828125,13.48876953125,-16.05224609375,-134.033203125,-522.9123644811564,-439.10693799116615,166.49309609259018,1745594617.206003
516,1,1,8,994,15,0.04736328125,1.30517578125,-0.05859375,16.9677734375,-13.671875,-143.1884765625,-515.427995755177,-425.6350742844032,166.49309609259018,1745594617.2135932
517,1,1,9,9,15,0.12890625,1.37841796875,-0.013671875,18.85986328125,-15.68603515625,-156.25,-513.9311220099811,-404.67884185166065,154.4575243942866,1745594617.2209172
518,1,1,9,24,15,0.14501953125,1.43701171875,-0.0390625,22.76611328125,-16.05224609375,-168.64013671875,-515.427995755177,-395.69759938048526,158.97086378115046,1745594617.2329626
519,1,1,9,39,15,0.166015625,1.46533203125,-0.05615234375,31.06689453125,-20.20263671875,-173.64501953125,-510.9373745195893,-382.2257356737222,158.97086378115046,1745594617.2394614
520,1,1,9,54,15,-0.0107421875,1.58447265625,-0.0166015625,37.841796875,-31.3720703125,-172.54638671875,-519.9186169907647,-358.27575575058796,146.93529208284687,1745594617.246943
521,1,1,9,69,15,0.4814453125,1.95556640625,0.23779296875,38.51318359375,-58.16650390625,-170.7763671875,-542.3717231687029,-352.28826076980437,154.4575243942866,1745594617.2533863
522,1,1,9,84,15,0.49462890625,1.71728515625,0.05029296875,49.8046875,-70.12939453125,-159.66796875,-525.9061119715482,-331.3320283370619,169.50198901716607,1745594617.2600508
523,1,1,9,99,15,-0.2109375,1.5009765625,-0.021484375,52.67333984375,-70.37353515625,-163.39111328125,-524.4092382263523,-326.8414071014742,146.93529208284687,1745594617.2683094
524,1,1,9,114,15,-0.58642578125,1.72802734375,-0.50634765625,34.36279296875,-73.3642578125,-189.39208984375,-507.9436270291975,-313.36954339471123,124.36859514852769,1745594617.2748728
525,1,1,9,129,15,-0.27197265625,1.3916015625,-0.58935546875,51.20849609375,-55.84716796875,-177.3681640625,-498.9623845580221,-287.922689726381,128.88193453539154,1745594617.288121
526,1,1,9,144,15,-0.3359375,1.3095703125,-0.54638671875,55.17578125,-26.30615234375,-167.48046875,-495.9686370676303,-293.9101847071646,128.88193453539154,1745594617.9388442
527,1,1,9,159,15,-0.076171875,1.125,-0.365234375,48.40087890625,-53.955078125,-128.72314453125,-475.01240463488784,-269.9602047840303,125.87304161081563,1745594617.9476848
528,1,1,9,174,15,0.208984375,0.70751953125,-0.20556640625,45.95947265625,-64.0869140625,-85.3271484375,-460.0436671829289,-275.9476997648139,112.33302345022412,1745594617.954135
529,1,1,9,189,15,-0.33740234375,0.3388671875,-0.27197265625,40.71044921875,-69.9462890625,-48.095703125,-437.5905610049905,-266.9664572936385,121.3597022239518,1745594617.9615314
530,1,1,9,204,15,-0.10595703125,0.4716796875,-0.24365234375,31.982421875,-68.603515625,-20.1416015625,-427.1124447886193,-266.9664572936385,113.83746991251206,1745594617.9680123
531,1,1,9,219,15,0.20458984375,0.32568359375,-0.1123046875,19.1650390625,-52.1240234375,20.44677734375,-392.68434864911376,-272.9539522744221,112.33302345022412,1745594617.9761393
532,1,1,9,234,15,0.3740234375,0.27294921875,-0.04541015625,14.7705078125,-20.99609375,54.99267578125,-379.2124849423507,-275.9476997648139,104.8107911387844,1745594617.9834454
533,1,1,9,249,15,0.4072265625,0.27587890625,0.01611328125,9.3994140625,8.1787109375,85.44921875,-335.80314633166984,-262.47583605805085,109.32413052564823,1745594617.9903326
534,1,1,9,264,15,0.275390625,0.28662109375,0.06494140625,3.0517578125,30.70068359375,118.46923828125,-335.80314633166984,-272.9539522744221,109.32413052564823,1745594617.997258
535,1,1,9,279,15,0.04931640625,0.5263671875,0.0107421875,-6.8359375,39.55078125,146.54541015625,-290.89693397579305,-269.9602047840303,128.88193453539154,1745594618.0067995
536,1,1,9,294,15,0.00146484375,0.3505859375,0.0498046875,-20.5078125,34.0576171875,172.2412109375,-277.42507026902996,-263.9727098032467,127.37748807310358,1745594618.013236
537,1,1,9,309,15,-0.064453125,0.4990234375,-0.017578125,-28.74755859375,35.70556640625,197.998046875,-237.0094791487409,-265.4695835484426,125.87304161081563,1745594618.246454
538,1,1,9,324,15,-0.0751953125,0.568359375,-0.0009765625,-37.29248046875,43.88427734375,228.08837890625,-219.0469942063902,-257.98521482246315,125.87304161081563,1745594618.2529068
539,1,1,9,339,15,-0.052734375,0.693359375,-0.00048828125,-43.51806640625,50.10986328125,251.46484375,-172.64390810531748,-240.02272988011242,136.40416684683126,1745594618.2593734
540,1,1,9,354,15,-0.05126953125,0.80029296875,0.06591796875,-52.42919921875,58.77685546875,267.7001953125,-159.17204439855445,-226.5508661733494,133.39527392225537,1745594618.2666767
541,1,1,9,369,15,-0.06640625,0.95703125,0.02294921875,-57.06787109375,63.29345703125,282.04345703125,-100.79396833591464,-213.07900246658636,127.37748807310358,1745594618.2743757
542,1,1,9,384,15,-0.11328125,1.10693359375,-0.02734375,-61.4013671875,62.255859375,294.677734375,-108.2783370618941,-192.12277003384384,134.8997203845433,1745594618.281055
543,1,1,9,399,15,-0.107421875,1.29833984375,-0.0556640625,-65.97900390625,60.9130859375,305.35888671875,-61.87525096082143,-160.6884213847301,137.9086133091192,1745594618.2887123
544,1,1,9,414,15,-0.1357421875,1.48046875,-0.0986328125,-67.138671875,64.8193359375,312.01171875,-54.39088223484197,-127.75719899042046,137.9086133091192,1745594618.2952611
545,1,1,9,429,15,-0.21728515625,1.6796875,-0.11376953125,-70.1904296875,71.6552734375,316.2841796875,-43.91276601847071,-78.360365398956,124.36859514852769,1745594618.3016915
546,1,1,9,444,15,-0.34619140625,1.90771484375,-0.15478515625,-72.93701171875,80.62744140625,324.951171875,-27.44715482131589,-79.85723914415189,115.34191637480001,1745594618.3484347
547,1,1,9,459,15,-0.53662109375,2.09228515625,-0.1181640625,-79.04052734375,65.673828125,325.50048828125,-40.91901852807893,-11.001046865140825,113.83746991251206,1745594618.3601222
548,1,1,9,474,15,-1.1142578125,1.982421875,-0.0927734375,-84.77783203125,33.935546875,323.2421875,-61.87525096082143,-15.491668100728502,97.28855882734466,1745594618.3666081
549,1,1,9,489,15,-1.12060546875,2.04248046875,-0.11376953125,-84.53369140625,-12.3291015625,300.537109375,-60.37837721562554,21.930175529168814,80.73964774217725,1745594618.3738716
550,1,1,9,504,15,-0.828125,1.94189453125,-0.20703125,-78.0029296875,-22.5830078125,269.6533203125,-70.85649343199678,18.936428038777038,77.73075481760137,1745594618.3816147
551,1,1,9,519,15,-0.818359375,1.3681640625,-0.62841796875,-58.16650390625,29.84619140625,222.59521484375,-102.29084208111054,29.41454425514828,77.73075481760137,1745594618.3883905
552,1,1,9,534,15,-1.48486328125,1.02197265625,-0.68115234375,-33.203125,56.33544921875,159.60693359375,-108.2783370618941,35.40203923593186,92.77521944048081,1745594618.3955793
553,1,1,9,549,15,-1.95654296875,0.80712890625,-0.46142578125,1.220703125,35.46142578125,91.30859375,-123.24707451385304,44.38328170710721,80.73964774217725,1745594618.4020054
554,1,1,9,564,15,-1.763671875,1.033203125,-0.37255859375,23.49853515625,18.798828125,2.86865234375,-120.25332702346124,26.420796764756492,74.72186189302546,1745594618.408455
555,1,1,9,579,15,-1.6513671875,0.927734375,-0.158203125,27.64892578125,36.2548828125,-75.37841796875,-133.72519073022428,44.38328170710721,77.73075481760137,1745594618.5864496
556,1,1,9,594,15,0.849609375,1.35791015625,0.17919921875,38.818359375,40.8935546875,-139.5263671875,-123.24707451385304,62.345766649457914,80.73964774217725,1745594618.5929248
557,1,1,9,609,15,2.921875,1.52490234375,0.478515625,31.31103515625,44.61669921875,17.63916015625,-120.25332702346124,51.86765043308668,64.19073665700984,1745594618.6000662
558,1,1,9,624,15,-0.33740234375,0.69921875,0.2333984375,29.4189453125,72.1435546875,-32.53173828125,-132.22831698502839,63.84264039465382,65.6951831192978,1745594618.6065137
559,1,1,9,639,15,0.4755859375,1.4873046875,0.31494140625,35.94970703125,29.47998046875,-87.09716796875,-123.24707451385304,65.33951413984971,56.668504345570106,1745594618.612931
560,1,1,9,654,15,0.63623046875,1.287109375,0.3642578125,41.8701171875,32.65380859375,-62.744140625,-127.7376957494407,54.86139792347845,64.19073665700984,1745594618.6267104
561,1,1,9,669,15,0.2158203125,1.0263671875,-0.55859375,55.7861328125,56.82373046875,-83.92333984375,-129.23456949463662,60.84889290426203,52.15516495870627,1745594618.634232
562,1,1,9,684,15,0.00537109375,1.224609375,-0.96142578125,83.55712890625,66.58935546875,-77.81982421875,-124.74394825904892,66.83638788504561,41.624039722690654,1745594618.745851
563,1,1,9,699,15,-0.4755859375,1.94384765625,0.537109375,60.48583984375,86.48681640625,-81.35986328125,-111.27208455228589,63.84264039465382,49.14627203413038,1745594618.7523036
564,1,1,9,714,15,-0.9267578125,1.12646484375,0.30078125,39.12353515625,14.22119140625,-51.57470703125,-109.77521080709,62.345766649457914,35.60625387353886,1745594618.7593765
565,1,1,9,729,15,-0.06640625,1.18994140625,0.03173828125,44.98291015625,-51.8798828125,-43.8232421875,-117.25957953306947,80.30825159180864,35.60625387353886,1745594618.7858422
566,1,1,9,744,15,0.15478515625,1.06494140625,-0.16650390625,34.423828125,-72.08251953125,-44.921875,-130.7314432398325,83.30199908220041,46.13737910955449,1745594618.7924917
567,1,1,9,759,15,0.31005859375,0.9794921875,-0.10302734375,28.80859375,-70.1904296875,-43.02978515625,-117.25957953306947,75.81763035622096,40.1195932604027,1745594618.7989817
568,1,1,9,774,15,0.4609375,0.9521484375,-0.0966796875,26.18408203125,-43.27392578125,-49.86572265625,-105.28458957150232,65.33951413984971,43.12848618497859,1745594618.805679
569,1,1,9,789,15,0.37890625,0.96533203125,-0.158203125,25.146484375,-14.95361328125,-49.74365234375,-111.27208455228589,60.84889290426203,31.092914486675024,1745594618.8120933
