Processed,Time(h),Time(m),Time(s),Time(ms),Delt,AccX,AccY,AccZ,GyroX,GyroY,GyroZ,MagX,MagY,MagZ,PCTimestamp
1,1,1,1,272,3661272,0.0888671875,1.01171875,-0.00927734375,-1.89208984375,-1.77001953125,-0.30517578125,-545.3654706590947,-272.9539522744221,-370.5942909442066,1745594633.9014173
2,1,1,1,287,15,0.08349609375,1.00390625,-0.0146484375,-1.953125,-1.52587890625,-0.06103515625,-557.3404606206619,-274.450826019618,-367.58539801963076,1745594633.919429
3,1,1,1,302,15,0.07470703125,1.01611328125,-0.013671875,-1.77001953125,-1.46484375,-0.06103515625,-555.8435868754661,-265.4695835484426,-352.54093339675126,1745594633.9264984
4,1,1,1,317,15,0.0791015625,1.01025390625,-0.02001953125,-1.953125,-2.01416015625,0.06103515625,-549.8560918946825,-260.97896231285495,-372.09873740649454,1745594633.9329767
5,1,1,1,332,15,0.0859375,1.01416015625,-0.01513671875,-2.197265625,-2.197265625,-0.1220703125,-545.3654706590947,-275.9476997648139,-376.6120767933584,1745594633.93947
6,1,1,1,347,15,0.087890625,1.00244140625,-0.0087890625,-2.3193359375,-2.62451171875,0.06103515625,-555.8435868754661,-280.4383210004015,-370.5942909442066,1745594633.9465842
7,1,1,1,362,15,0.0849609375,1.0048828125,-0.00927734375,-2.38037109375,-2.685546875,0.0,-561.8310818562496,-271.4570785292262,-378.1165232556463,1745594633.9533627
8,1,1,1,377,15,0.076171875,1.0166015625,-0.0224609375,-2.0751953125,-2.13623046875,0.1220703125,-558.8373343658578,-269.9602047840303,-373.6031838687825,1745594633.9599311
9,1,1,1,392,15,0.0888671875,1.00830078125,-0.0078125,-1.8310546875,-1.8310546875,0.1220703125,-555.8435868754661,-275.9476997648139,-370.5942909442066,1745594633.9665773
10,1,1,1,407,15,0.09375,1.00048828125,-0.01953125,-1.89208984375,-1.89208984375,-0.1220703125,-552.8498393850743,-275.9476997648139,-379.62096971793426,1745594633.986732
11,1,1,1,422,15,0.08447265625,1.00634765625,-0.01220703125,-1.89208984375,-1.52587890625,-0.18310546875,-546.8623444042908,-281.93519474559736,-375.1076303310705,1745594634.0269637
12,1,1,1,437,15,0.07958984375,1.0146484375,-0.01806640625,-1.89208984375,-1.708984375,-0.06103515625,-552.8498393850743,-275.9476997648139,-373.6031838687825,1745594634.0335498
13,1,1,1,452,15,0.095703125,1.009765625,-0.01318359375,-1.5869140625,-1.64794921875,0.0,-557.3404606206619,-271.4570785292262,-372.09873740649454,1745594634.0401273
14,1,1,1,467,15,0.07470703125,1.00634765625,-0.0224609375,-1.64794921875,-1.220703125,-0.42724609375,-548.3592181494867,-272.9539522744221,-387.14320202937404,1745594634.0466604
15,1,1,1,482,15,0.087890625,1.015625,-0.0107421875,-1.708984375,-1.28173828125,-0.30517578125,-566.3217030918373,-269.9602047840303,-370.5942909442066,1745594634.0533822
16,1,1,1,497,15,0.08935546875,1.009765625,-0.01708984375,-1.64794921875,-0.9765625,-0.18310546875,-566.3217030918373,-265.4695835484426,-376.6120767933584,1745594634.0599155
17,1,1,1,512,15,0.08251953125,1.00341796875,-0.013671875,-1.64794921875,-0.9765625,-0.244140625,-563.3279556014455,-254.99146733207135,-366.08095155734276,1745594634.066444
18,1,1,1,527,15,0.0712890625,1.00634765625,-0.00634765625,-1.40380859375,-0.9765625,-0.18310546875,-552.8498393850743,-257.98521482246315,-384.13430910479815,1745594634.0729873
19,1,1,1,542,15,0.07421875,1.02001953125,-0.005859375,-1.40380859375,-1.0986328125,0.18310546875,-561.8310818562496,-271.4570785292262,-372.09873740649454,1745594634.0795171
20,1,1,1,557,15,0.0869140625,1.00732421875,-0.02294921875,-1.40380859375,-1.15966796875,0.244140625,-561.8310818562496,-260.97896231285495,-375.1076303310705,1745594634.0860367
21,1,1,1,572,15,0.09130859375,1.0107421875,-0.00537109375,-1.28173828125,-0.732421875,0.30517578125,-557.3404606206619,-263.9727098032467,-382.62986264251015,1745594634.093017
22,1,1,1,587,15,0.09326171875,1.00244140625,-0.0146484375,-1.0986328125,-0.244140625,0.06103515625,-557.3404606206619,-281.93519474559736,-375.1076303310705,1745594634.0996006
23,1,1,1,602,15,0.08984375,1.00244140625,-0.00830078125,-0.91552734375,0.1220703125,-0.18310546875,-576.7998193082085,-265.4695835484426,-379.62096971793426,1745594634.1063488
24,1,1,1,617,15,0.09619140625,1.0068359375,-0.02587890625,-0.67138671875,0.1220703125,0.1220703125,-552.8498393850743,-269.9602047840303,-355.54982632132715,1745594634.1129224
25,1,1,1,632,15,0.07666015625,1.01123046875,-0.017578125,-1.220703125,-0.67138671875,0.3662109375,-549.8560918946825,-260.97896231285495,-367.58539801963076,1745594634.1194575
26,1,1,1,647,15,0.0791015625,1.00439453125,-0.0048828125,-0.91552734375,-0.54931640625,0.42724609375,-555.8435868754661,-280.4383210004015,-379.62096971793426,1745594634.1259623
27,1,1,1,662,15,0.0947265625,1.00390625,-0.01171875,-0.9765625,-0.30517578125,0.67138671875,-558.8373343658578,-280.4383210004015,-352.54093339675126,1745594634.132519
28,1,1,1,677,15,0.09228515625,1.00830078125,-0.0185546875,-0.91552734375,0.30517578125,0.48828125,-563.3279556014455,-272.9539522744221,-376.6120767933584,1745594634.1390514
29,1,1,1,692,15,0.0869140625,0.9970703125,-0.0166015625,-0.67138671875,0.9765625,0.1220703125,-555.8435868754661,-283.43206849079326,-370.5942909442066,1745594634.1455615
30,1,1,1,707,15,0.08544921875,1.01123046875,-0.01708984375,-0.79345703125,1.64794921875,-0.06103515625,-570.812324327425,-287.922689726381,-366.08095155734276,1745594634.1521237
31,1,1,1,722,15,0.06494140625,1.017578125,-0.00537109375,-0.79345703125,0.732421875,0.1220703125,-546.8623444042908,-278.9414472552056,-364.5765050950548,1745594634.1589103
32,1,1,1,737,15,0.09033203125,1.017578125,-0.00927734375,-0.67138671875,-0.1220703125,-0.06103515625,-554.3467131302702,-271.4570785292262,-378.1165232556463,1745594634.1654298
33,1,1,1,752,15,0.08935546875,1.00439453125,-0.0078125,-0.67138671875,-1.0986328125,0.54931640625,-563.3279556014455,-280.4383210004015,-376.6120767933584,1745594634.1719017
34,1,1,1,767,15,0.09423828125,1.013671875,-0.02587890625,-0.9765625,-1.28173828125,0.06103515625,-557.3404606206619,-278.9414472552056,-364.5765050950548,1745594634.178587
35,1,1,1,782,15,0.0830078125,1.00341796875,-0.00390625,-0.91552734375,-1.0986328125,0.06103515625,-558.8373343658578,-275.9476997648139,-379.62096971793426,1745594634.1851392
36,1,1,1,797,15,0.07958984375,0.99560546875,0.00244140625,-0.8544921875,-1.40380859375,-0.18310546875,-557.3404606206619,-278.9414472552056,-372.09873740649454,1745594634.1920426
37,1,1,1,812,15,0.10498046875,1.0244140625,0.00146484375,-0.732421875,-1.8310546875,-0.18310546875,-558.8373343658578,-272.9539522744221,-360.063165708191,1745594634.1986897
38,1,1,1,827,15,0.076171875,1.005859375,-0.009765625,1.0986328125,-1.28173828125,-0.3662109375,-552.8498393850743,-262.47583605805085,-363.07205863276687,1745594634.3032346
39,1,1,1,842,15,0.07421875,1.0107421875,-0.0107421875,1.15966796875,-1.3427734375,0.0,-564.8248293466414,-263.9727098032467,-367.58539801963076,1745594635.2384758
40,1,1,1,857,15,0.08837890625,1.00146484375,-0.056640625,2.44140625,2.0751953125,1.03759765625,-566.3217030918373,-275.9476997648139,-384.13430910479815,1745594635.244961
41,1,1,1,872,15,0.0791015625,1.005859375,-0.02392578125,3.11279296875,4.08935546875,1.3427734375,-542.3717231687029,-275.9476997648139,-370.5942909442066,1745594635.2515023
42,1,1,1,887,15,0.115234375,0.9892578125,-0.02783203125,3.90625,8.23974609375,2.44140625,-554.3467131302702,-263.9727098032467,-361.5676121704789,1745594635.6164978
43,1,1,1,902,15,0.0810546875,1.01025390625,-0.0166015625,2.01416015625,9.27734375,1.89208984375,-546.8623444042908,-271.4570785292262,-375.1076303310705,1745594635.622998
44,1,1,1,917,15,0.0615234375,1.0224609375,-0.00244140625,1.89208984375,8.97216796875,1.40380859375,-555.8435868754661,-283.43206849079326,-370.5942909442066,1745594635.629673
45,1,1,1,932,15,0.0791015625,1.01953125,-0.021484375,1.953125,6.591796875,0.42724609375,-570.812324327425,-280.4383210004015,-373.6031838687825,1745594635.6418238
46,1,1,1,947,15,0.111328125,0.99755859375,-0.01611328125,2.86865234375,4.21142578125,-0.18310546875,-542.3717231687029,-280.4383210004015,-355.54982632132715,1745594635.6486108
47,1,1,1,962,15,0.0986328125,0.9970703125,-0.04345703125,2.62451171875,5.615234375,-0.732421875,-563.3279556014455,-272.9539522744221,-379.62096971793426,1745594635.6551645
48,1,1,1,977,15,0.0625,1.017578125,-0.01123046875,1.77001953125,5.37109375,-1.89208984375,-555.8435868754661,-283.43206849079326,-384.13430910479815,1745594635.70815
49,1,1,1,992,15,0.12451171875,1.00146484375,-0.037109375,2.9296875,6.28662109375,-2.25830078125,-557.3404606206619,-281.93519474559736,-358.55871924590303,1745594635.7147596
50,1,1,2,7,15,0.0732421875,0.99853515625,-0.02490234375,2.74658203125,5.18798828125,-3.47900390625,-564.8248293466414,-278.9414472552056,-367.58539801963076,1745594635.7212672
51,1,1,2,22,15,0.13134765625,1.0087890625,-0.02197265625,4.21142578125,5.31005859375,-4.150390625,-554.3467131302702,-284.9289422359892,-364.5765050950548,1745594635.7277758
52,1,1,2,37,15,0.048828125,0.99951171875,0.03173828125,3.41796875,4.45556640625,-5.31005859375,-552.8498393850743,-280.4383210004015,-390.15209495394987,1745594635.7346892
53,1,1,2,52,15,0.033203125,1.02099609375,0.001953125,4.45556640625,5.06591796875,-7.14111328125,-555.8435868754661,-283.43206849079326,-373.6031838687825,1745594635.7412229
54,1,1,2,67,15,0.04736328125,1.0048828125,-0.0185546875,6.9580078125,5.4931640625,-7.4462890625,-552.8498393850743,-283.43206849079326,-387.14320202937404,1745594635.7489612
55,1,1,2,82,15,0.16455078125,0.9892578125,-0.01220703125,6.28662109375,3.72314453125,-10.498046875,-563.3279556014455,-283.43206849079326,-370.5942909442066,1745594635.7557867
56,1,1,2,97,15,0.099609375,0.9697265625,-0.0947265625,7.4462890625,8.36181640625,-9.46044921875,-546.8623444042908,-271.4570785292262,-378.1165232556463,1745594635.7622654
57,1,1,2,112,15,0.03076171875,0.95703125,-0.072265625,6.04248046875,8.30078125,-8.72802734375,-570.812324327425,-293.9101847071646,-373.6031838687825,1745594635.7689254
58,1,1,2,127,15,-0.04345703125,0.97802734375,-0.02880859375,3.35693359375,3.90625,-9.6435546875,-563.3279556014455,-269.9602047840303,-376.6120767933584,1745594635.7760062
59,1,1,2,142,15,-0.00244140625,1.0263671875,0.00341796875,1.46484375,-1.40380859375,-11.23046875,-545.3654706590947,-272.9539522744221,-387.14320202937404,1745594635.7824793
60,1,1,2,157,15,0.05224609375,0.99755859375,-0.03564453125,2.8076171875,-6.04248046875,-13.916015625,-557.3404606206619,-295.4070584523605,-367.58539801963076,1745594635.789233
61,1,1,2,172,15,0.18359375,1.009765625,-0.109375,3.5400390625,-4.0283203125,-14.83154296875,-548.3592181494867,-280.4383210004015,-379.62096971793426,1745594635.924542
62,1,1,2,187,15,0.2236328125,1.0498046875,-0.10205078125,4.0283203125,1.0986328125,-14.34326171875,-570.812324327425,-280.4383210004015,-379.62096971793426,1745594635.9311116
63,1,1,2,202,15,0.13720703125,1.03466796875,-0.03076171875,3.90625,0.06103515625,-16.4794921875,-548.3592181494867,-265.4695835484426,-379.62096971793426,1745594635.9489806
64,1,1,2,217,15,0.14501953125,0.9716796875,-0.06982421875,3.11279296875,-7.87353515625,-17.578125,-563.3279556014455,-262.47583605805085,-384.13430910479815,1745594635.9565818
65,1,1,2,232,15,0.09619140625,1.1005859375,-0.15380859375,0.244140625,-7.568359375,-15.7470703125,-557.3404606206619,-263.9727098032467,-375.1076303310705,1745594635.96306
66,1,1,2,247,15,-0.04248046875,1.048828125,-0.0634765625,-4.2724609375,-13.48876953125,-17.39501953125,-561.8310818562496,-256.4883410772673,-388.6476484916619,1745594635.9695764
67,1,1,2,262,15,-0.0126953125,1.02392578125,-0.0927734375,-6.34765625,-23.3154296875,-17.02880859375,-563.3279556014455,-251.99771984167958,-379.62096971793426,1745594635.9767785
68,1,1,2,277,15,0.0322265625,0.99853515625,-0.05859375,-8.9111328125,-30.82275390625,-17.02880859375,-554.3467131302702,-260.97896231285495,-375.1076303310705,1745594635.9832487
69,1,1,2,292,15,0.11962890625,0.99853515625,-0.0283203125,-7.01904296875,-35.400390625,-18.73779296875,-570.812324327425,-262.47583605805085,-379.62096971793426,1745594635.9901786
70,1,1,2,307,15,0.2548828125,1.13720703125,-0.02783203125,-7.32421875,-37.841796875,-28.25927734375,-564.8248293466414,-256.4883410772673,-375.1076303310705,1745594635.9967945
71,1,1,2,322,15,0.2880859375,0.9248046875,0.0185546875,0.1220703125,-35.70556640625,-37.29248046875,-573.8060718178168,-254.99146733207135,-384.13430910479815,1745594636.004483
72,1,1,2,337,15,0.26416015625,0.9775390625,0.1748046875,4.94384765625,-33.50830078125,-53.77197265625,-561.8310818562496,-249.00397235128779,-378.1165232556463,1745594636.011032
73,1,1,2,352,15,0.29150390625,1.19287109375,-0.0205078125,6.65283203125,-24.96337890625,-71.4111328125,-573.8060718178168,-234.03523489932883,-379.62096971793426,1745594636.0182323
74,1,1,2,367,15,0.2451171875,1.140625,-0.00634765625,11.71875,-18.798828125,-88.92822265625,-576.7998193082085,-234.03523489932883,-394.66543434081376,1745594636.024715
75,1,1,2,382,15,0.1494140625,1.17529296875,0.0009765625,12.02392578125,-23.74267578125,-107.23876953125,-570.812324327425,-226.5508661733494,-384.13430910479815,1745594636.0312128
76,1,1,2,397,15,0.12109375,1.158203125,-0.08935546875,22.27783203125,-22.5830078125,-114.6240234375,-582.7873142889921,-210.08525497619456,-399.1787737276776,1745594636.0383353
77,1,1,2,412,15,0.11767578125,1.26318359375,-0.11767578125,27.40478515625,-17.39501953125,-114.1357421875,-582.7873142889921,-192.12277003384384,-399.1787737276776,1745594636.044872
78,1,1,2,427,15,0.1923828125,1.42431640625,0.091796875,23.193359375,-14.46533203125,-108.7646484375,-581.2904405437962,-187.63214879825617,-400.68322018996554,1745594636.0523741
79,1,1,2,442,15,0.04150390625,1.24755859375,-0.0478515625,20.1416015625,14.892578125,-110.41259765625,-582.7873142889921,-163.68216887512187,-409.7098989636932,1745594636.0595381
80,1,1,2,457,15,-0.107421875,1.0966796875,-0.12890625,13.48876953125,40.71044921875,-110.04638671875,-573.8060718178168,-151.70717891355474,-414.22323835055704,1745594636.07123
81,1,1,2,472,15,-0.046875,1.05712890625,-0.201171875,5.06591796875,47.05810546875,-111.083984375,-582.7873142889921,-160.6884213847301,-409.7098989636932,1745594636.0782442
82,1,1,2,487,15,0.21728515625,1.01171875,-0.32861328125,1.708984375,54.99267578125,-108.82568359375,-572.3091980726209,-142.72593644237938,-423.2499171242847,1745594636.0847182
83,1,1,2,502,15,-0.0126953125,0.66845703125,-0.53515625,15.0146484375,55.96923828125,-84.53369140625,-576.7998193082085,-129.25407273561638,-421.74547066199676,1745594636.0916207
84,1,1,2,517,15,1.517578125,0.20458984375,-0.01513671875,8.056640625,25.45166015625,-34.3017578125,-567.8185768370332,-127.75719899042046,-426.2588100488606,1745594636.098956
85,1,1,2,532,15,1.880859375,-0.447265625,0.3232421875,1.77001953125,49.8046875,91.30859375,-557.3404606206619,-117.27908277404921,-412.7187918882691,1745594636.1067297
86,1,1,2,547,15,1.26904296875,-0.09716796875,0.380859375,-32.71484375,41.8701171875,185.1806640625,-554.3467131302702,-114.28533528365743,-409.7098989636932,1745594636.1134446
87,1,1,2,562,15,0.75439453125,1.13818359375,0.05419921875,-62.8662109375,-10.7421875,280.57861328125,-552.8498393850743,-172.66341134629724,-408.20545250140526,1745594636.1205125
88,1,1,2,577,15,0.4345703125,2.904296875,-0.92578125,-48.7060546875,21.05712890625,339.599609375,-564.8248293466414,-192.12277003384384,-399.1787737276776,1745594636.1270459
89,1,1,2,592,15,-12.70703125,3.12939453125,-1.97900390625,-45.166015625,60.36376953125,130.4931640625,-567.8185768370332,-249.00397235128779,-367.58539801963076,1745594636.1335237
90,1,1,2,607,15,0.03369140625,-0.82373046875,1.44140625,43.39599609375,-146.78955078125,-265.56396484375,-549.8560918946825,-271.4570785292262,-358.55871924590303,1745594636.140557
91,1,1,2,622,15,1.27783203125,0.10888671875,0.328125,-1.5869140625,-60.11962890625,-17.63916015625,-567.8185768370332,-253.49459358687545,-367.58539801963076,1745594636.1471019
92,1,1,2,637,15,-0.2060546875,1.17529296875,0.2568359375,-25.634765625,23.98681640625,26.18408203125,-548.3592181494867,-240.02272988011242,-379.62096971793426,1745594636.2063215
93,1,1,2,652,15,-0.76708984375,0.966796875,-0.22265625,-18.310546875,-32.71484375,15.2587890625,-545.3654706590947,-244.5133511157001,-360.063165708191,1745594636.2128317
94,1,1,2,667,15,-0.0087890625,1.029296875,0.0634765625,2.74658203125,7.01904296875,11.29150390625,-542.3717231687029,-244.5133511157001,-366.08095155734276,1745594636.2613375
95,1,1,2,682,15,-0.0390625,1.126953125,-0.10986328125,3.2958984375,-12.14599609375,19.1650390625,-564.8248293466414,-231.04148740893706,-375.1076303310705,1745594636.273962
96,1,1,2,697,15,0.15771484375,1.076171875,-0.32666015625,4.5166015625,-9.033203125,6.7138671875,-548.3592181494867,-240.02272988011242,-360.063165708191,1745594636.2806132
97,1,1,2,712,15,-0.1943359375,0.93212890625,-0.1904296875,2.25830078125,-19.22607421875,10.986328125,-557.3404606206619,-238.52585613491652,-367.58539801963076,1745594636.2876484
98,1,1,2,727,15,-0.1083984375,0.94677734375,-0.01611328125,0.6103515625,-26.42822265625,13.36669921875,-546.8623444042908,-249.00397235128779,-358.55871924590303,1745594636.2944694
99,1,1,2,742,15,0.03466796875,1.052734375,-0.0771484375,1.40380859375,-21.42333984375,18.73779296875,-537.8811019331152,-229.54461366374116,-363.07205863276687,1745594636.3011096
100,1,1,2,757,15,-0.13427734375,1.0,0.041015625,5.43212890625,-20.81298828125,18.49365234375,-545.3654706590947,-237.02898238972065,-366.08095155734276,1745594636.319522
101,1,1,2,772,15,-0.1005859375,0.9765625,-0.0595703125,4.69970703125,-19.10400390625,16.11328125,-552.8498393850743,-226.5508661733494,-363.07205863276687,1745594636.3265882
102,1,1,2,787,15,0.01904296875,0.9423828125,-0.1474609375,5.4931640625,-17.333984375,11.77978515625,-546.8623444042908,-253.49459358687545,-361.5676121704789,1745594636.3330896
103,1,1,2,802,15,0.08544921875,0.9658203125,-0.17431640625,3.11279296875,-13.36669921875,9.70458984375,-542.3717231687029,-240.02272988011242,-370.5942909442066,1745594636.3454094
104,1,1,2,817,15,0.0673828125,1.07470703125,-0.1005859375,2.50244140625,-18.12744140625,6.28662109375,-546.8623444042908,-249.00397235128779,-385.6387555670861,1745594636.3678234
105,1,1,2,832,15,-0.056640625,1.04443359375,-0.0615234375,3.11279296875,-11.77978515625,1.8310546875,-549.8560918946825,-235.53210864452475,-367.58539801963076,1745594636.3743167
106,1,1,2,847,15,-0.11083984375,0.9853515625,-0.0419921875,4.150390625,-10.986328125,-0.91552734375,-536.3842281879195,-231.04148740893706,-375.1076303310705,1745594636.3912885
107,1,1,2,862,15,0.0302734375,1.0771484375,-0.07421875,2.62451171875,-8.056640625,-4.45556640625,-542.3717231687029,-234.03523489932883,-370.5942909442066,1745594636.3978565
108,1,1,2,877,15,0.01904296875,1.03466796875,-0.044921875,4.150390625,-9.27734375,-9.1552734375,-557.3404606206619,-228.0477399185453,-364.5765050950548,1745594636.4317415
109,1,1,2,892,15,-0.13671875,1.04443359375,-0.05859375,6.8359375,-17.4560546875,-12.02392578125,-549.8560918946825,-225.0539924281535,-367.58539801963076,1745594636.4382863
110,1,1,2,907,15,-0.16015625,0.97705078125,-0.10546875,5.55419921875,-20.3857421875,-10.1318359375,-542.3717231687029,-234.03523489932883,-370.5942909442066,1745594636.4455
111,1,1,2,922,15,-0.11962890625,0.96630859375,-0.11767578125,0.06103515625,-16.845703125,-8.4228515625,-534.8873544427236,-222.06024493776172,-384.13430910479815,1745594636.4519966
112,1,1,2,937,15,0.0068359375,1.02978515625,-0.115234375,-5.18798828125,-13.427734375,-11.90185546875,-539.3779756783111,-213.07900246658636,-388.6476484916619,1745594636.4599159
113,1,1,2,952,15,0.056640625,1.046875,-0.23388671875,-9.21630859375,-7.14111328125,-21.8505859375,-525.9061119715482,-235.53210864452475,-375.1076303310705,1745594636.4669797
114,1,1,2,967,15,-0.1845703125,1.0322265625,0.09912109375,-3.23486328125,-9.8876953125,-22.5830078125,-530.3967332071359,-216.07274995697813,-379.62096971793426,1745594636.4734383
115,1,1,2,982,15,-0.123046875,0.99072265625,-0.0966796875,-4.0283203125,-7.32421875,-27.9541015625,-527.4029857167441,-211.58212872139046,-387.14320202937404,1745594636.4799237
116,1,1,2,997,15,0.12060546875,0.96435546875,-0.04052734375,-1.46484375,1.03759765625,-27.9541015625,-543.8685969138988,-202.6008862502151,-391.65654141623787,1745594636.487053
117,1,1,3,12,15,-0.08544921875,1.00830078125,-0.203125,-3.662109375,11.65771484375,-27.83203125,-554.3467131302702,-207.0915074858028,-391.65654141623787,1745594636.493734
118,1,1,3,27,15,-0.1513671875,1.06005859375,-0.09375,-7.080078125,-0.42724609375,-30.6396484375,-537.8811019331152,-234.03523489932883,-387.14320202937404,1745594636.5002427
119,1,1,3,42,15,-0.05908203125,1.07470703125,0.0029296875,-3.84521484375,-8.11767578125,-33.99658203125,-537.8811019331152,-205.59463374060687,-387.14320202937404,1745594636.5077271
120,1,1,3,57,15,-0.01220703125,1.1337890625,-0.0498046875,-1.64794921875,-4.33349609375,-41.32080078125,-548.3592181494867,-216.07274995697813,-387.14320202937404,1745594636.514193
121,1,1,3,72,15,0.12451171875,1.23681640625,-0.14306640625,1.03759765625,-1.40380859375,-50.6591796875,-552.8498393850743,-193.61964377903976,-397.6743272653896,1745594636.5207095
122,1,1,3,87,15,0.21728515625,1.3916015625,-0.0673828125,9.1552734375,9.09423828125,-55.84716796875,-557.3404606206619,-196.61339126943153,-391.65654141623787,1745594636.5277712
123,1,1,3,102,15,0.490234375,1.6103515625,-0.01416015625,6.103515625,28.6865234375,-72.93701171875,-570.812324327425,-183.1415275626685,-408.20545250140526,1745594636.5342307
124,1,1,3,117,15,0.095703125,1.3232421875,0.28662109375,17.02880859375,43.88427734375,-86.5478515625,-555.8435868754661,-198.11026501462743,-394.66543434081376,1745594636.5407329
125,1,1,3,132,15,0.38232421875,1.29150390625,0.06689453125,15.31982421875,11.23046875,-109.55810546875,-563.3279556014455,-187.63214879825617,-387.14320202937404,1745594636.5477145
126,1,1,3,147,15,0.41796875,0.55517578125,-0.18408203125,15.31982421875,7.62939453125,-80.87158203125,-557.3404606206619,-178.65090632708083,-385.6387555670861,1745594636.5541663
127,1,1,3,162,15,1.40283203125,-0.45703125,-0.13232421875,9.70458984375,-10.43701171875,-33.75244140625,-548.3592181494867,-165.1790426203178,-418.7365777374209,1745594636.5723207
128,1,1,3,177,15,2.32421875,0.068359375,0.8046875,-20.3857421875,-15.9912109375,141.05224609375,-552.8498393850743,-175.65715883668904,-400.68322018996554,1745594636.578768
129,1,1,3,192,15,0.8544921875,1.0009765625,0.0126953125,-55.7861328125,8.9111328125,237.12158203125,-546.8623444042908,-181.6446538174726,-391.65654141623787,1745594636.5852683
130,1,1,3,207,15,0.50830078125,2.392578125,-0.48095703125,-68.66455078125,-7.4462890625,265.380859375,-563.3279556014455,-226.5508661733494,-379.62096971793426,1745594636.592211
131,1,1,3,222,15,-8.65771484375,3.03857421875,-2.49169921875,-15.31982421875,52.06298828125,35.2783203125,-539.3779756783111,-243.01647737050422,-367.58539801963076,1745594636.598762
132,1,1,3,237,15,-0.517578125,-0.56787109375,1.03564453125,51.7578125,-76.35498046875,-163.330078125,-539.3779756783111,-263.9727098032467,-358.55871924590303,1745594636.6052651
133,1,1,3,252,15,0.26171875,0.404296875,0.45654296875,9.21630859375,-61.70654296875,2.197265625,-545.3654706590947,-251.99771984167958,-373.6031838687825,1745594636.6123807
134,1,1,3,267,15,-0.83447265625,0.80615234375,0.15673828125,-22.39990234375,-16.6015625,20.32470703125,-543.8685969138988,-225.0539924281535,-378.1165232556463,1745594636.6191058
135,1,1,3,282,15,-0.302734375,0.94287109375,-0.00146484375,-5.55419921875,-30.6396484375,28.80859375,-542.3717231687029,-229.54461366374116,-379.62096971793426,1745594636.6256306
136,1,1,3,297,15,-0.02392578125,1.0478515625,-0.234375,-0.48828125,-19.8974609375,19.775390625,-542.3717231687029,-222.06024493776172,-370.5942909442066,1745594636.6321762
137,1,1,3,312,15,0.275390625,1.14794921875,-0.365234375,3.84521484375,-25.87890625,22.15576171875,-536.3842281879195,-231.04148740893706,-372.09873740649454,1745594636.6396322
138,1,1,3,327,15,-0.03271484375,1.10107421875,-0.19140625,1.0986328125,-24.35302734375,16.29638671875,-545.3654706590947,-237.02898238972065,-366.08095155734276,1745594636.6534832
139,1,1,3,342,15,0.0234375,1.03955078125,-0.033203125,0.06103515625,-22.52197265625,9.033203125,-548.3592181494867,-234.03523489932883,-363.07205863276687,1745594636.6783504
140,1,1,3,357,15,-0.0693359375,1.00390625,0.1162109375,4.45556640625,-11.71875,9.46044921875,-543.8685969138988,-235.53210864452475,-367.58539801963076,1745594636.6869004
141,1,1,3,372,15,-0.02587890625,0.9814453125,0.0595703125,2.86865234375,-0.244140625,6.89697265625,-536.3842281879195,-228.0477399185453,-361.5676121704789,1745594636.6954806
142,1,1,3,387,15,-0.09228515625,0.98388671875,-0.15869140625,4.69970703125,-1.46484375,9.33837890625,-542.3717231687029,-234.03523489932883,-360.063165708191,1745594636.7097406
143,1,1,3,402,15,-0.14501953125,0.97705078125,-0.1083984375,7.01904296875,-13.7939453125,7.87353515625,-548.3592181494867,-219.06649744736993,-370.5942909442066,1745594636.7179925
144,1,1,3,417,15,-0.021484375,0.98095703125,-0.11083984375,4.69970703125,-20.32470703125,4.33349609375,-528.89985946194,-235.53210864452475,-375.1076303310705,1745594636.7261043
145,1,1,3,432,15,-0.0439453125,0.962890625,-0.1162109375,3.84521484375,-17.15087890625,2.13623046875,-537.8811019331152,-234.03523489932883,-370.5942909442066,1745594636.7342403
146,1,1,3,447,15,0.001953125,1.0712890625,-0.17578125,-1.77001953125,-10.8642578125,-0.8544921875,-546.8623444042908,-235.53210864452475,-367.58539801963076,1745594636.741816
147,1,1,3,462,15,-0.0791015625,1.0205078125,-0.03271484375,-1.89208984375,-4.45556640625,-3.7841796875,-542.3717231687029,-222.06024493776172,-370.5942909442066,1745594636.7485435
148,1,1,3,477,15,-0.1591796875,0.962890625,-0.00390625,0.06103515625,-4.8828125,-4.69970703125,-545.3654706590947,-222.06024493776172,-352.54093339675126,1745594636.755141
149,1,1,3,492,15,-0.103515625,1.0361328125,-0.02294921875,1.46484375,-3.47900390625,-5.859375,-525.9061119715482,-225.0539924281535,-367.58539801963076,1745594636.7730007
150,1,1,3,507,15,-0.03173828125,1.126953125,-0.1796875,-0.54931640625,-2.62451171875,-8.97216796875,-534.8873544427236,-229.54461366374116,-366.08095155734276,1745594637.0663843
151,1,1,3,522,15,-0.0625,1.11083984375,-0.11083984375,-3.173828125,-2.25830078125,-11.65771484375,-527.4029857167441,-229.54461366374116,-370.5942909442066,1745594637.0728955
152,1,1,3,537,15,-0.0830078125,1.0712890625,-0.1650390625,-6.103515625,-10.55908203125,-15.80810546875,-515.427995755177,-220.56337119256582,-364.5765050950548,1745594637.275713
153,1,1,3,552,15,-0.20458984375,0.98876953125,-0.10107421875,-6.7138671875,-17.88330078125,-14.58740234375,-530.3967332071359,-219.06649744736993,-376.6120767933584,1745594637.2828808
154,1,1,3,567,15,-0.21630859375,0.94140625,-0.044921875,-7.8125,-20.44677734375,-7.62939453125,-536.3842281879195,-220.56337119256582,-367.58539801963076,1745594637.2897644
155,1,1,3,582,15,-0.1220703125,0.9697265625,-0.0537109375,-10.55908203125,-17.578125,-4.57763671875,-533.3904806975277,-228.0477399185453,-372.09873740649454,1745594637.2963169
156,1,1,3,597,15,-0.05126953125,0.99560546875,-0.09375,-13.7939453125,-11.5966796875,-7.6904296875,-524.4092382263523,-205.59463374060687,-376.6120767933584,1745594637.3035243
157,1,1,3,612,15,0.02197265625,1.205078125,-0.18701171875,-19.95849609375,-8.11767578125,-16.4794921875,-516.9248695003729,-216.07274995697813,-363.07205863276687,1745594637.310072
158,1,1,3,627,15,-0.1318359375,0.9052734375,0.02001953125,-13.61083984375,-9.521484375,-20.01953125,-533.3904806975277,-207.0915074858028,-375.1076303310705,1745594637.318125
159,1,1,3,642,15,-0.0859375,1.04150390625,0.0244140625,-14.6484375,-10.8642578125,-23.5595703125,-552.8498393850743,-205.59463374060687,-360.063165708191,1745594637.3256047
160,1,1,3,657,15,-0.0419921875,1.0625,-0.05908203125,-13.85498046875,-5.859375,-27.77099609375,-543.8685969138988,-196.61339126943153,-375.1076303310705,1745594637.3322892
161,1,1,3,672,15,-0.03857421875,1.05126953125,-0.00048828125,-11.1083984375,-7.38525390625,-36.4990234375,-528.89985946194,-207.0915074858028,-364.5765050950548,1745594637.3394992
162,1,1,3,687,15,-0.01708984375,1.08154296875,-0.05078125,-5.31005859375,-15.5029296875,-45.41015625,-536.3842281879195,-217.56962370217403,-358.55871924590303,1745594637.3466303
163,1,1,3,702,15,0.04541015625,1.119140625,0.01953125,0.732421875,-18.12744140625,-55.5419921875,-537.8811019331152,-201.1040125050192,-373.6031838687825,1745594637.3531206
164,1,1,3,717,15,0.05419921875,1.1328125,0.0595703125,3.90625,-21.3623046875,-68.90869140625,-561.8310818562496,-192.12277003384384,-364.5765050950548,1745594637.35965
165,1,1,3,732,15,0.16552734375,1.31201171875,0.16455078125,1.77001953125,-22.216796875,-82.8857421875,-561.8310818562496,-184.6384013078644,-367.58539801963076,1745594637.367802
166,1,1,3,747,15,0.13623046875,1.3984375,0.13134765625,6.89697265625,-8.056640625,-95.8251953125,-558.8373343658578,-169.66966385590547,-379.62096971793426,1745594637.5787873
167,1,1,3,762,15,0.07666015625,1.4384765625,0.05078125,13.36669921875,3.35693359375,-106.87255859375,-554.3467131302702,-148.71343142316294,-382.62986264251015,1745594637.5853126
168,1,1,3,777,15,0.01708984375,1.41015625,0.0712890625,16.2353515625,7.01904296875,-116.455078125,-564.8248293466414,-156.19780014914244,-396.1698808031017,1745594637.5927198
169,1,1,3,792,15,0.10595703125,1.37548828125,-0.0751953125,13.671875,11.16943359375,-125.91552734375,-563.3279556014455,-126.26032524522458,-405.1965595768294,1745594637.5992744
170,1,1,3,807,15,0.14306640625,0.82177734375,-0.0703125,15.93017578125,47.54638671875,-116.88232421875,-557.3404606206619,-114.28533528365743,-388.6476484916619,1745594637.6057668
171,1,1,3,822,15,-0.04150390625,1.11962890625,-0.2314453125,15.80810546875,67.626953125,-113.34228515625,-546.8623444042908,-114.28533528365743,-396.1698808031017,1745594638.1836586
172,1,1,3,837,15,-0.1806640625,0.94384765625,-0.4755859375,7.50732421875,48.03466796875,-100.7080078125,-554.3467131302702,-124.76345150002867,-396.1698808031017,1745594638.1905224
173,1,1,3,852,15,0.4248046875,0.42138671875,-0.45556640625,21.240234375,38.87939453125,-69.82421875,-552.8498393850743,-87.34160787013136,-411.21434542598115,1745594638.197074
174,1,1,3,867,15,1.2666015625,0.59375,0.19482421875,8.1787109375,35.2783203125,10.8642578125,-552.8498393850743,-87.34160787013136,-394.66543434081376,1745594638.2043483
175,1,1,3,882,15,1.21044921875,0.13330078125,0.1806640625,-1.8310546875,63.90380859375,60.60791015625,-552.8498393850743,-105.30409281248207,-370.5942909442066,1745594638.2108839
176,1,1,3,897,15,0.94921875,0.2470703125,0.169921875,-19.83642578125,43.51806640625,112.24365234375,-548.3592181494867,-123.26657775483278,-379.62096971793426,1745594638.2173874
177,1,1,3,912,15,1.04443359375,0.400390625,0.0947265625,-35.70556640625,33.26416015625,171.38671875,-524.4092382263523,-126.26032524522458,-387.14320202937404,1745594638.2258296
178,1,1,3,927,15,0.85791015625,0.62890625,0.17724609375,-51.6357421875,35.94970703125,229.3701171875,-528.89985946194,-171.16653760110134,-367.58539801963076,1745594638.2323778
179,1,1,3,942,15,0.599609375,1.00537109375,0.162109375,-62.255859375,44.189453125,271.6064453125,-530.3967332071359,-205.59463374060687,-373.6031838687825,1745594638.2389102
180,1,1,3,957,15,0.27880859375,2.72705078125,-1.26611328125,-48.88916015625,125.30517578125,389.7705078125,-522.9123644811564,-263.9727098032467,-332.9831293870079,1745594638.2462323
181,1,1,3,972,15,-3.08203125,2.66015625,-0.10400390625,-157.470703125,28.86962890625,306.94580078125,-519.9186169907647,-301.394553433144,-331.47868292472,1745594638.2527394
182,1,1,3,987,15,-9.8349609375,5.2998046875,-2.7529296875,100.2197265625,48.40087890625,-186.767578125,-488.4842683416509,-340.3132708082373,-307.40753952811286,1745594638.2592502
183,1,1,4,2,15,0.55419921875,-0.41015625,-0.0712890625,110.3515625,-226.806640625,-127.25830078125,-497.4655108128262,-313.36954339471123,-319.4431112264165,1745594638.2664926
184,1,1,4,17,15,0.77880859375,-0.45068359375,0.04345703125,-7.75146484375,-96.25244140625,43.39599609375,-498.9623845580221,-298.40080594275224,-342.0098081607356,1745594638.4708238
185,1,1,4,32,15,-0.8203125,1.21435546875,0.4736328125,-32.71484375,-16.41845703125,63.41552734375,-510.9373745195893,-292.4133109619687,-340.50536169844764,1745594638.478675
186,1,1,4,47,15,-0.3583984375,0.95556640625,0.3876953125,-29.96826171875,-50.84228515625,35.82763671875,-504.9498795388057,-299.89767968794814,-326.9653435378562,1745594638.4852033
187,1,1,4,62,15,0.63720703125,1.48291015625,-0.1416015625,-10.3759765625,5.43212890625,38.2080078125,-519.9186169907647,-287.922689726381,-339.00091523615976,1745594638.4924922
188,1,1,4,77,15,0.607421875,1.15869140625,0.02197265625,7.6904296875,34.912109375,20.751953125,-519.9186169907647,-304.3883009235358,-317.93866476412853,1745594638.4990551
189,1,1,4,92,15,0.1728515625,1.1806640625,-0.3740234375,14.46533203125,26.3671875,5.92041015625,-524.4092382263523,-308.8789221591235,-314.9297718395526,1745594638.5117345
190,1,1,4,107,15,-0.259765625,0.9287109375,-0.19287109375,9.8876953125,8.60595703125,-3.41796875,-507.9436270291975,-320.85391212069067,-332.9831293870079,1745594638.5182984
191,1,1,4,122,15,-0.1708984375,0.994140625,-0.04931640625,-0.1220703125,-5.43212890625,7.9345703125,-524.4092382263523,-298.40080594275224,-335.99202231158387,1745594638.524881
192,1,1,4,137,15,0.0068359375,1.029296875,-0.11279296875,4.5166015625,-4.150390625,25.7568359375,-513.9311220099811,-308.8789221591235,-339.00091523615976,1745594638.533245
193,1,1,4,152,15,-0.091796875,0.96142578125,-0.09326171875,0.91552734375,-17.7001953125,25.45166015625,-504.9498795388057,-307.3820484139276,-351.0364869344633,1745594638.539804
194,1,1,4,167,15,-0.1826171875,0.9150390625,0.0625,2.44140625,-23.92578125,18.85986328125,-507.9436270291975,-313.36954339471123,-343.5142546230236,1745594638.5464666
195,1,1,4,182,15,0.009765625,0.9775390625,0.0166015625,3.84521484375,-24.84130859375,17.39501953125,-506.4467532840016,-298.40080594275224,-331.47868292472,1745594638.5878336
196,1,1,4,197,15,0.08935546875,1.0107421875,-0.13623046875,4.57763671875,-16.357421875,16.54052734375,-504.9498795388057,-307.3820484139276,-323.95645061328025,1745594638.5951288
197,1,1,4,212,15,0.07958984375,0.97998046875,-0.111328125,2.3193359375,-7.99560546875,10.80322265625,-516.9248695003729,-319.35703837549477,-325.4608970755682,1745594638.6019928
198,1,1,4,227,15,0.017578125,1.03173828125,-0.11181640625,2.38037109375,-8.48388671875,10.1318359375,-497.4655108128262,-313.36954339471123,-329.97423646243203,1745594638.6145284
199,1,1,4,242,15,0.02734375,0.955078125,0.048828125,4.8828125,-13.00048828125,5.06591796875,-509.4405007743934,-311.87266964951533,-328.46979000014414,1745594638.6210775
200,1,1,4,257,15,0.0810546875,1.02734375,0.00439453125,7.75146484375,-13.671875,2.197265625,-498.9623845580221,-304.3883009235358,-328.46979000014414,1745594638.6290588
201,1,1,4,272,15,0.0439453125,1.07373046875,-0.09228515625,7.4462890625,-9.033203125,-5.615234375,-489.9811420868468,-313.36954339471123,-329.97423646243203,1745594638.6362016
202,1,1,4,287,15,0.05615234375,1.064453125,-0.15625,4.08935546875,-3.662109375,-11.90185546875,-480.99989961567144,-319.35703837549477,-339.00091523615976,1745594638.642685
203,1,1,4,302,15,-0.08349609375,1.02685546875,-0.0576171875,2.86865234375,-1.708984375,-15.07568359375,-483.99364710606324,-313.36954339471123,-351.0364869344633,1745594638.6492212
204,1,1,4,317,15,-0.091796875,1.0107421875,-0.13720703125,0.9765625,-10.19287109375,-13.85498046875,-488.4842683416509,-319.35703837549477,-335.99202231158387,1745594638.6565762
205,1,1,4,332,15,-0.07080078125,0.97705078125,-0.0947265625,-0.1220703125,-14.70947265625,-10.07080078125,-480.99989961567144,-293.9101847071646,-352.54093339675126,1745594638.66307
206,1,1,4,347,15,-0.06298828125,0.96923828125,-0.11474609375,-2.5634765625,-13.916015625,-8.056640625,-491.4780158320427,-316.36329088510297,-360.063165708191,1745594638.6751468
207,1,1,4,362,15,-0.017578125,1.00634765625,-0.14111328125,-5.9814453125,-12.02392578125,-10.31494140625,-486.987394596455,-299.89767968794814,-351.0364869344633,1745594638.6879895
208,1,1,4,377,15,0.05029296875,1.1552734375,-0.1806640625,-11.962890625,-4.94384765625,-12.939453125,-491.4780158320427,-304.3883009235358,-349.5320404721753,1745594638.700451
209,1,1,4,392,15,-0.1923828125,0.9072265625,-0.01904296875,-6.40869140625,-1.64794921875,-12.75634765625,-486.987394596455,-310.3757959043194,-351.0364869344633,1745594638.8165178
210,1,1,4,407,15,-0.01806640625,1.0185546875,-0.0615234375,-8.30078125,-1.15966796875,-13.24462890625,-491.4780158320427,-301.394553433144,-355.54982632132715,1745594638.8230119
211,1,1,4,422,15,-0.0625,1.0419921875,-0.0556640625,-9.70458984375,-1.953125,-15.19775390625,-503.4530057936098,-298.40080594275224,-352.54093339675126,1745594638.830951
212,1,1,4,437,15,0.12060546875,1.03662109375,-0.04638671875,-13.427734375,-6.89697265625,-21.91162109375,-504.9498795388057,-299.89767968794814,-348.0275940098874,1745594638.8383186
213,1,1,4,452,15,0.0068359375,1.05712890625,-0.09619140625,-13.85498046875,-6.53076171875,-24.71923828125,-503.4530057936098,-308.8789221591235,-339.00091523615976,1745594638.8500478
214,1,1,4,467,15,-0.06689453125,1.02392578125,-0.03271484375,-13.00048828125,-13.61083984375,-27.4658203125,-513.9311220099811,-308.8789221591235,-352.54093339675126,1745594638.926484
215,1,1,4,482,15,-0.00537109375,1.0556640625,-0.09228515625,-12.6953125,-14.83154296875,-30.57861328125,-510.9373745195893,-295.4070584523605,-354.0453798590392,1745594638.9343874
216,1,1,4,497,15,0.1025390625,1.08203125,-0.021484375,-6.9580078125,-2.685546875,-34.3017578125,-524.4092382263523,-290.9164372167728,-370.5942909442066,1745594638.941569
217,1,1,4,512,15,0.0537109375,1.10009765625,-0.0107421875,-7.568359375,-1.8310546875,-44.921875,-507.9436270291975,-278.9414472552056,-361.5676121704789,1745594638.948212
218,1,1,4,527,15,0.08349609375,1.11962890625,-0.01416015625,-6.591796875,-5.859375,-54.8095703125,-537.8811019331152,-290.9164372167728,-366.08095155734276,1745594638.9606438
219,1,1,4,542,15,0.0751953125,1.19677734375,-0.0791015625,-5.4931640625,-5.615234375,-65.673828125,-528.89985946194,-292.4133109619687,-354.0453798590392,1745594638.9671931
220,1,1,4,557,15,0.16845703125,1.287109375,-0.1162109375,-5.79833984375,-4.0283203125,-77.81982421875,-527.4029857167441,-265.4695835484426,-366.08095155734276,1745594638.9736621
221,1,1,4,572,15,0.41943359375,1.5234375,0.017578125,-7.01904296875,7.080078125,-86.7919921875,-528.89985946194,-271.4570785292262,-367.58539801963076,1745594638.9820964
222,1,1,4,587,15,0.19482421875,1.408203125,0.07470703125,2.99072265625,36.31591796875,-101.13525390625,-539.3779756783111,-263.9727098032467,-354.0453798590392,1745594638.9888964
223,1,1,4,602,15,0.265625,1.4541015625,0.10205078125,0.9765625,31.06689453125,-129.2724609375,-536.3842281879195,-256.4883410772673,-348.0275940098874,1745594638.995435
224,1,1,4,617,15,0.5478515625,1.25390625,-0.06396484375,7.26318359375,27.2216796875,-137.939453125,-533.3904806975277,-256.4883410772673,-361.5676121704789,1745594639.0026877
225,1,1,4,632,15,0.58984375,0.9423828125,-0.30859375,21.240234375,46.44775390625,-105.5908203125,-539.3779756783111,-235.53210864452475,-343.5142546230236,1745594639.0092454
226,1,1,4,647,15,2.1533203125,-0.1298828125,0.0244140625,23.92578125,58.53271484375,-33.3251953125,-552.8498393850743,-244.5133511157001,-335.99202231158387,1745594639.035136
227,1,1,4,662,15,2.04541015625,0.1328125,0.28173828125,6.40869140625,116.02783203125,95.27587890625,-533.3904806975277,-228.0477399185453,-358.55871924590303,1745594639.042379
228,1,1,4,677,15,1.8798828125,0.3447265625,0.2314453125,-25.69580078125,109.06982421875,172.42431640625,-534.8873544427236,-254.99146733207135,-342.0098081607356,1745594639.048917
229,1,1,4,692,15,1.37158203125,1.80908203125,-0.5634765625,-45.166015625,115.29541015625,287.53662109375,-522.9123644811564,-289.4195634715769,-329.97423646243203,1745594639.0554283
230,1,1,4,707,15,-0.15869140625,2.26806640625,-0.2470703125,-61.95068359375,77.1484375,336.3037109375,-504.9498795388057,-310.3757959043194,-323.95645061328025,1745594639.0626464
231,1,1,4,722,15,-11.7353515625,3.189453125,-3.193359375,-4.0283203125,74.15771484375,106.99462890625,-491.4780158320427,-373.2444932025469,-301.38975367896103,1745594639.0692756
232,1,1,4,737,15,-0.89599609375,-2.13671875,1.89990234375,25.08544921875,-136.41357421875,-263.00048828125,-469.02490965410425,-389.71010439970166,-298.3808607543852,1745594639.0758233
233,1,1,4,752,15,0.17626953125,-0.2509765625,-0.96044921875,19.287109375,-181.09130859375,92.34619140625,-483.99364710606324,-364.2632507313715,-316.43421830184053,1745594639.084272
234,1,1,4,767,15,-0.572265625,1.30859375,0.998046875,-10.07080078125,-63.4765625,88.68408203125,-479.50302587047554,-361.2695032409797,-337.4964687738718,1745594639.0908613
235,1,1,4,782,15,-0.8056640625,0.98486328125,0.7890625,-34.1796875,-87.34130859375,-0.54931640625,-455.5530459473413,-346.30076578902083,-316.43421830184053,1745594639.097398
236,1,1,4,797,15,0.6591796875,1.22705078125,-0.396484375,-7.32421875,-37.04833984375,25.45166015625,-467.52803590890835,-340.3132708082373,-331.47868292472,1745594639.1443946
237,1,1,4,812,15,0.44091796875,1.2255859375,-0.02197265625,9.82666015625,34.85107421875,23.98681640625,-483.99364710606324,-343.30701829862903,-326.9653435378562,1745594639.1510103
238,1,1,4,827,15,0.05419921875,1.0791015625,-0.22265625,14.16015625,32.8369140625,5.4931640625,-478.00615212527964,-340.3132708082373,-328.46979000014414,1745594639.1575236
239,1,1,4,842,15,-0.099609375,0.96337890625,-0.16064453125,14.5263671875,15.80810546875,6.4697265625,-483.99364710606324,-338.81639706304134,-316.43421830184053,1745594639.164747
240,1,1,4,857,15,-0.103515625,0.99951171875,-0.037109375,7.50732421875,15.0146484375,10.92529296875,-464.5342884185166,-358.27575575058796,-328.46979000014414,1745594639.17129
241,1,1,4,872,15,0.04638671875,1.060546875,-0.12646484375,6.77490234375,11.3525390625,11.65771484375,-479.50302587047554,-361.2695032409797,-308.9119859904008,1745594639.1777961
242,1,1,4,887,15,0.16943359375,0.98388671875,-0.25390625,7.75146484375,-12.26806640625,15.13671875,-470.52178339930015,-352.28826076980437,-320.94755768870436,1745594639.1860855
243,1,1,4,902,15,-0.08447265625,0.96484375,-0.19287109375,2.13623046875,-28.3203125,14.7705078125,-478.00615212527964,-365.7601244765674,-325.4608970755682,1745594639.2745206
244,1,1,4,917,15,-0.20556640625,0.8984375,0.017578125,1.89208984375,-38.63525390625,12.8173828125,-491.4780158320427,-365.7601244765674,-314.9297718395526,1745594639.281075
245,1,1,4,932,15,-0.01611328125,0.98583984375,-0.03515625,1.15966796875,-35.7666015625,12.26806640625,-466.03116216371245,-338.81639706304134,-332.9831293870079,1745594639.2895224
246,1,1,4,947,15,0.0341796875,1.06298828125,-0.10986328125,0.1220703125,-21.6064453125,10.07080078125,-472.01865714449605,-346.30076578902083,-329.97423646243203,1745594639.2961557
247,1,1,4,962,15,0.07666015625,1.02978515625,-0.123046875,-0.9765625,-14.83154296875,5.67626953125,-467.52803590890835,-355.28200826019616,-320.94755768870436,1745594639.3026552
248,1,1,4,977,15,0.02294921875,1.01318359375,-0.1357421875,-3.7841796875,-6.89697265625,6.89697265625,-467.52803590890835,-347.7976395342167,-325.4608970755682,1745594639.3147717
249,1,1,4,992,15,-0.10986328125,0.943359375,-0.056640625,-5.859375,-3.23486328125,5.37109375,-472.01865714449605,-356.77888200539206,-326.9653435378562,1745594639.3213365
250,1,1,5,7,15,0.00732421875,1.06103515625,-0.06201171875,-6.9580078125,-12.75634765625,3.173828125,-472.01865714449605,-346.30076578902083,-323.95645061328025,1745594639.3286004
251,1,1,5,22,15,0.11669921875,1.0712890625,-0.0595703125,-4.7607421875,-15.5029296875,-1.220703125,-466.03116216371245,-343.30701829862903,-316.43421830184053,1745594639.3364527
252,1,1,5,37,15,0.103515625,1.10009765625,-0.05419921875,-3.0517578125,-13.5498046875,-8.544921875,-472.01865714449605,-346.30076578902083,-329.97423646243203,1745594639.3429189
253,1,1,5,52,15,0.0009765625,1.02001953125,-0.0595703125,0.0,-13.97705078125,-15.869140625,-478.00615212527964,-347.7976395342167,-342.0098081607356,1745594639.350165
254,1,1,5,67,15,-0.09228515625,0.96826171875,-0.05859375,1.03759765625,-16.17431640625,-18.4326171875,-475.01240463488784,-352.28826076980437,-314.9297718395526,1745594639.35668
255,1,1,5,82,15,-0.01318359375,0.966796875,-0.0556640625,-1.220703125,-15.380859375,-21.17919921875,-461.5405409281248,-349.2945132794126,-332.9831293870079,1745594639.3631408
256,1,1,5,97,15,0.01806640625,1.083984375,-0.06298828125,-2.5634765625,-12.3291015625,-26.2451171875,-466.03116216371245,-349.2945132794126,-329.97423646243203,1745594639.3703547
257,1,1,5,112,15,0.0634765625,1.06298828125,-0.2529296875,-6.77490234375,-7.32421875,-35.82763671875,-470.52178339930015,-337.31952331784544,-342.0098081607356,1745594639.3770683
258,1,1,5,127,15,-0.197265625,1.0146484375,0.0302734375,0.6103515625,-6.103515625,-30.1513671875,-461.5405409281248,-343.30701829862903,-329.97423646243203,1745594639.3835466
259,1,1,5,142,15,-0.04052734375,0.9990234375,-0.14306640625,-4.7607421875,-4.69970703125,-34.60693359375,-464.5342884185166,-344.80389204382493,-349.5320404721753,1745594639.4284382
260,1,1,5,157,15,-0.09521484375,1.0283203125,-0.033203125,-5.31005859375,-3.7841796875,-35.21728515625,-483.99364710606324,-335.82264957264954,-354.0453798590392,1745594639.4370375
261,1,1,5,172,15,0.01708984375,1.076171875,-0.04248046875,-7.50732421875,-9.6435546875,-43.8232421875,-472.01865714449605,-338.81639706304134,-348.0275940098874,1745594639.4436278
262,1,1,5,187,15,0.0810546875,1.0673828125,-0.1279296875,-3.23486328125,-8.72802734375,-48.33984375,-475.01240463488784,-322.3507858658865,-352.54093339675126,1745594639.4512284
263,1,1,5,202,15,-0.0625,1.05029296875,-0.083984375,-4.0283203125,-10.07080078125,-49.1943359375,-486.987394596455,-328.3382808466701,-354.0453798590392,1745594639.45783
264,1,1,5,217,15,-0.1279296875,1.07177734375,-0.10498046875,-5.859375,-10.07080078125,-49.560546875,-497.4655108128262,-320.85391212069067,-351.0364869344633,1745594639.4643276
265,1,1,5,232,15,-0.1455078125,1.1123046875,-0.0986328125,-6.8359375,-12.39013671875,-49.560546875,-495.9686370676303,-319.35703837549477,-342.0098081607356,1745594639.4765258
266,1,1,5,247,15,-0.08544921875,1.10009765625,-0.099609375,-6.28662109375,-12.20703125,-50.72021484375,-486.987394596455,-313.36954339471123,-351.0364869344633,1745594639.4830284
267,1,1,5,262,15,0.13232421875,1.40380859375,-0.03076171875,-7.080078125,-11.77978515625,-52.91748046875,-515.427995755177,-317.86016463029887,-364.5765050950548,1745594639.4916275
268,1,1,5,277,15,0.404296875,1.400390625,-0.11083984375,0.18310546875,18.24951171875,-63.5986328125,-498.9623845580221,-308.8789221591235,-342.0098081607356,1745594639.498245
269,1,1,5,292,15,0.23681640625,1.21337890625,0.10888671875,8.48388671875,37.841796875,-78.4912109375,-515.427995755177,-295.4070584523605,-354.0453798590392,1745594639.5047345
270,1,1,5,307,15,0.19677734375,1.38916015625,0.27587890625,5.92041015625,28.62548828125,-109.68017578125,-506.4467532840016,-283.43206849079326,-349.5320404721753,1745594639.5120282
271,1,1,5,322,15,0.54248046875,1.37109375,0.12158203125,1.15966796875,27.40478515625,-136.71875,-516.9248695003729,-290.9164372167728,-349.5320404721753,1745594639.5186062
272,1,1,5,337,15,0.35498046875,1.11767578125,-0.15869140625,12.939453125,48.2177734375,-122.25341796875,-513.9311220099811,-280.4383210004015,-352.54093339675126,1745594640.8209236
273,1,1,5,352,15,-0.15673828125,0.0625,-0.47705078125,19.6533203125,50.96435546875,-94.1162109375,-506.4467532840016,-262.47583605805085,-352.54093339675126,1745594640.8274598
274,1,1,5,367,15,2.2744140625,0.2412109375,0.451171875,17.9443359375,14.58740234375,5.4931640625,-518.4217432455688,-263.9727098032467,-358.55871924590303,1745594640.833945
275,1,1,5,382,15,1.96533203125,0.23193359375,0.59375,-16.90673828125,71.35009765625,124.0234375,-518.4217432455688,-278.9414472552056,-343.5142546230236,1745594640.8407686
276,1,1,5,397,15,1.56591796875,0.77783203125,0.28759765625,-48.583984375,64.39208984375,198.18115234375,-509.4405007743934,-290.9164372167728,-352.54093339675126,1745594640.8473008
277,1,1,5,412,15,1.13330078125,1.5068359375,-0.0322265625,-59.326171875,85.0830078125,276.91650390625,-486.987394596455,-302.8914271783399,-329.97423646243203,1745594640.8548422
278,1,1,5,427,15,-0.4111328125,2.61181640625,-0.60205078125,-65.91796875,68.115234375,308.2275390625,-483.99364710606324,-338.81639706304134,-316.43421830184053,1745594641.298788
279,1,1,5,442,15,-9.92724609375,3.1748046875,-2.61962890625,8.36181640625,70.73974609375,56.33544921875,-449.5655509665577,-386.7163569093099,-296.87641429209725,1745594641.3121135
280,1,1,5,457,15,-0.95166015625,-1.0078125,0.91455078125,52.490234375,-87.95166015625,-181.884765625,-437.5905610049905,-407.67258934205245,-292.36307490523336,1745594641.3186843
281,1,1,5,472,15,-1.6005859375,0.03564453125,-0.9326171875,29.23583984375,-83.3740234375,48.27880859375,-437.5905610049905,-377.7351144381346,-302.89420014124903,1745594641.3252044
282,1,1,5,487,15,-0.1474609375,0.7109375,0.3994140625,0.6103515625,-73.05908203125,18.73779296875,-430.10619227901105,-374.7413669477428,-323.95645061328025,1745594641.3324335
283,1,1,5,502,15,-0.90966796875,0.7060546875,0.21142578125,-2.44140625,-76.0498046875,38.39111328125,-428.60931853381516,-383.7226094189181,-320.94755768870436,1745594641.3445077
284,1,1,5,517,15,-0.017578125,1.068359375,0.064453125,-11.04736328125,-35.7666015625,33.63037109375,-431.60306602420695,-368.75387196695925,-311.9208789149767,1745594641.3518355
285,1,1,5,532,15,0.57470703125,1.20751953125,-0.23291015625,-0.732421875,-6.04248046875,34.1796875,-442.0811822405782,-376.2382406929387,-320.94755768870436,1745594641.3646014
286,1,1,5,547,15,0.2744140625,1.26220703125,-0.31201171875,6.103515625,1.03759765625,29.052734375,-458.546793437733,-361.2695032409797,-319.4431112264165,1745594641.3719192
287,1,1,5,562,15,0.0029296875,1.0068359375,-0.0693359375,2.0751953125,0.67138671875,16.845703125,-428.60931853381516,-386.7163569093099,-314.9297718395526,1745594641.3784497
288,1,1,5,577,15,0.046875,1.03759765625,-0.025390625,5.92041015625,-1.03759765625,14.892578125,-446.5718034761659,-368.75387196695925,-311.9208789149767,1745594641.3849273
289,1,1,5,592,15,0.072265625,0.990234375,-0.1103515625,1.89208984375,1.64794921875,15.5029296875,-436.09368725979465,-376.2382406929387,-335.99202231158387,1745594641.3923695
290,1,1,5,607,15,0.02685546875,1.0107421875,-0.21484375,0.6103515625,-11.23046875,14.58740234375,-439.0874347501864,-391.20697814489756,-317.93866476412853,1745594641.3989108
291,1,1,5,622,15,0.00244140625,1.02783203125,-0.08642578125,0.8544921875,-23.8037109375,5.859375,-422.6218235530316,-400.18822061607295,-319.4431112264165,1745594641.406695
292,1,1,5,637,15,0.013671875,0.99755859375,-0.0166015625,1.77001953125,-26.91650390625,-0.48828125,-440.5843084953823,-374.7413669477428,-323.95645061328025,1745594641.4188466
293,1,1,5,652,15,0.025390625,0.990234375,-0.076171875,2.62451171875,-22.64404296875,-3.90625,-442.0811822405782,-398.6913468708771,-325.4608970755682,1745594641.4255812
294,1,1,5,667,15,-0.0185546875,0.91357421875,0.0,2.197265625,-10.498046875,-8.9111328125,-430.10619227901105,-385.219483164114,-313.42532537726464,1745594641.4328432
295,1,1,5,682,15,-0.03173828125,1.01123046875,-0.10400390625,1.77001953125,-6.9580078125,-11.1083984375,-428.60931853381516,-391.20697814489756,-320.94755768870436,1745594641.4393773
296,1,1,5,697,15,-0.0771484375,1.00634765625,-0.10595703125,0.1220703125,-6.28662109375,-11.3525390625,-428.60931853381516,-376.2382406929387,-320.94755768870436,1745594641.4458919
297,1,1,5,712,15,-0.0869140625,1.03369140625,-0.0703125,-1.3427734375,-4.39453125,-10.43701171875,-430.10619227901105,-377.7351144381346,-332.9831293870079,1745594641.4530752
298,1,1,5,727,15,0.0185546875,0.9921875,-0.23974609375,-3.60107421875,-7.75146484375,-10.8642578125,-451.0624247117536,-374.7413669477428,-323.95645061328025,1745594641.460925
299,1,1,5,742,15,-0.0791015625,0.994140625,-0.1064453125,-5.126953125,-6.34765625,-10.1318359375,-437.5905610049905,-389.71010439970166,-340.50536169844764,1745594641.4674678
300,1,1,5,757,15,-0.10888671875,1.01220703125,-0.107421875,-7.14111328125,-8.544921875,-9.33837890625,-439.0874347501864,-358.27575575058796,-320.94755768870436,1745594641.4746103
301,1,1,5,772,15,-0.02880859375,1.001953125,-0.0869140625,-8.9111328125,-4.82177734375,-10.92529296875,-431.60306602420695,-373.2444932025469,-328.46979000014414,1745594641.4811537
302,1,1,5,787,15,0.00390625,1.02783203125,-0.03369140625,-9.70458984375,-3.11279296875,-16.7236328125,-422.6218235530316,-361.2695032409797,-332.9831293870079,1745594641.4877186
303,1,1,5,802,15,0.01220703125,1.12548828125,-0.06689453125,-10.8642578125,-4.0283203125,-24.90234375,-433.09993976940285,-361.2695032409797,-319.4431112264165,1745594641.4952972
304,1,1,5,817,15,-0.12255859375,0.9326171875,0.0205078125,-7.99560546875,-9.58251953125,-33.38623046875,-431.60306602420695,-358.27575575058796,-335.99202231158387,1745594641.5018113
305,1,1,5,832,15,-0.00341796875,1.041015625,-0.0224609375,-6.9580078125,-8.1787109375,-34.5458984375,-428.60931853381516,-358.27575575058796,-335.99202231158387,1745594641.5202312
306,1,1,5,847,15,-0.1337890625,1.0712890625,-0.1083984375,-6.53076171875,-5.55419921875,-33.3251953125,-442.0811822405782,-362.7663769861756,-339.00091523615976,1745594641.5268223
307,1,1,5,862,15,-0.1943359375,1.01171875,-0.126953125,-10.009765625,-7.62939453125,-31.6162109375,-449.5655509665577,-352.28826076980437,-328.46979000014414,1745594641.534032
308,1,1,5,877,15,-0.13720703125,1.02880859375,-0.14208984375,-13.7939453125,-12.451171875,-27.40478515625,-440.5843084953823,-364.2632507313715,-343.5142546230236,1745594641.6055176
309,1,1,5,892,15,-0.1171875,1.0390625,-0.09130859375,-15.07568359375,-15.07568359375,-27.16064453125,-458.546793437733,-371.747619457351,-343.5142546230236,1745594641.6190999
310,1,1,5,907,15,-0.02001953125,1.08203125,-0.03564453125,-11.16943359375,-11.16943359375,-30.6396484375,-452.5592984569495,-347.7976395342167,-339.00091523615976,1745594641.625633
311,1,1,5,922,15,0.06787109375,1.08154296875,0.00390625,-9.27734375,-7.8125,-37.841796875,-466.03116216371245,-346.30076578902083,-337.4964687738718,1745594641.6321192
312,1,1,5,937,15,0.134765625,1.15966796875,-0.04541015625,-7.62939453125,-9.1552734375,-53.466796875,-470.52178339930015,-362.7663769861756,-339.00091523615976,1745594641.6445117
313,1,1,5,952,15,0.18896484375,1.31689453125,-0.01220703125,-4.69970703125,-2.99072265625,-66.34521484375,-475.01240463488784,-347.7976395342167,-335.99202231158387,1745594641.6510615
314,1,1,5,967,15,0.3935546875,1.43017578125,0.0615234375,-1.953125,-2.86865234375,-80.38330078125,-475.01240463488784,-337.31952331784544,-349.5320404721753,1745594641.659351
315,1,1,5,982,15,0.25048828125,1.4814453125,0.013671875,6.16455078125,10.68115234375,-96.3134765625,-486.987394596455,-328.3382808466701,-351.0364869344633,1745594641.6660855
316,1,1,5,997,15,0.2109375,1.4267578125,-0.02978515625,14.95361328125,22.216796875,-106.50634765625,-476.50927838008374,-325.3445333562783,-361.5676121704789,1745594641.6726174
317,1,1,6,12,15,0.21533203125,1.40380859375,0.04736328125,20.44677734375,33.935546875,-112.060546875,-489.9811420868468,-299.89767968794814,-348.0275940098874,1745594641.67988
318,1,1,6,27,15,0.06494140625,1.31640625,-0.056640625,20.1416015625,31.25,-124.32861328125,-480.99989961567144,-304.3883009235358,-349.5320404721753,1745594641.7650013
319,1,1,6,42,15,0.267578125,0.9580078125,-0.3212890625,17.27294921875,26.9775390625,-109.31396484375,-486.987394596455,-299.89767968794814,-354.0453798590392,1745594641.792225
320,1,1,6,57,15,1.19970703125,0.0703125,-0.099609375,21.17919921875,33.50830078125,-59.6923828125,-486.987394596455,-302.8914271783399,-343.5142546230236,1745594641.7995396
321,1,1,6,72,15,1.86279296875,0.0927734375,0.49462890625,6.9580078125,44.7998046875,60.11962890625,-491.4780158320427,-298.40080594275224,-352.54093339675126,1745594641.8060815
322,1,1,6,87,15,1.32958984375,-0.08837890625,0.38623046875,-18.06640625,48.9501953125,120.9716796875,-472.01865714449605,-295.4070584523605,-351.0364869344633,1745594641.8450668
323,1,1,6,102,15,1.232421875,0.46337890625,0.15869140625,-50.72021484375,24.35302734375,210.0830078125,-464.5342884185166,-329.835154591866,-335.99202231158387,1745594641.851567
324,1,1,6,117,15,0.86962890625,1.09619140625,0.03564453125,-66.89453125,37.90283203125,267.9443359375,-451.0624247117536,-356.77888200539206,-332.9831293870079,1745594641.9319193
325,1,1,6,132,15,0.3681640625,3.0673828125,-0.818359375,-52.6123046875,91.6748046875,324.03564453125,-430.10619227901105,-374.7413669477428,-316.43421830184053,1745594641.9386199
326,1,1,6,147,15,-5.693359375,2.66552734375,0.24365234375,-104.248046875,107.2998046875,260.986328125,-379.2124849423507,-419.6475793036195,-307.40753952811286,1745594641.9459836
327,1,1,6,162,15,-6.029296875,2.9130859375,-0.642578125,-21.66748046875,50.10986328125,-326.904296875,-368.7343687259795,-448.0881804623415,-301.38975367896103,1745594641.9525857
328,1,1,6,177,15,0.4765625,0.05419921875,-0.82177734375,154.23583984375,-175.10986328125,18.37158203125,-370.23124247117534,-425.6350742844032,-319.4431112264165,1745594641.9591126
329,1,1,6,192,15,0.32373046875,-0.07861328125,0.6005859375,-8.11767578125,-50.048828125,-28.80859375,-371.72811621637123,-412.1632105776401,-311.9208789149767,1745594641.9673512
330,1,1,6,207,15,-0.3525390625,1.02392578125,0.419921875,-20.01953125,-55.2978515625,38.330078125,-359.7531262548041,-400.18822061607295,-319.4431112264165,1745594641.9794524
331,1,1,6,222,15,-0.7705078125,1.0810546875,-0.17236328125,-0.9765625,-74.03564453125,9.3994140625,-355.2625050192164,-395.69759938048526,-323.95645061328025,1745594641.9867668
332,1,1,6,237,15,-0.033203125,0.91162109375,0.11474609375,5.7373046875,-18.9208984375,9.33837890625,-365.7406212355877,-392.70385189009346,-313.42532537726464,1745594641.9934554
333,1,1,6,252,15,-0.07421875,1.03955078125,-0.01171875,8.056640625,-18.00537109375,20.751953125,-374.72186370676303,-380.7288619285263,-311.9208789149767,1745594641.9999733
334,1,1,6,267,15,0.21240234375,1.15869140625,-0.19970703125,2.38037109375,-5.18798828125,11.5966796875,-379.2124849423507,-380.7288619285263,-328.46979000014414,1745594642.0073783
335,1,1,6,282,15,-0.11865234375,0.93408203125,-0.08740234375,6.4697265625,6.53076171875,7.9345703125,-370.23124247117534,-371.747619457351,-329.97423646243203,1745594642.0153513
336,1,1,6,297,15,-0.1376953125,1.02783203125,-0.21044921875,6.04248046875,1.77001953125,12.39013671875,-373.22498996156713,-382.2257356737222,-319.4431112264165,1745594642.0218236
337,1,1,6,312,15,0.00830078125,1.03466796875,-0.0712890625,5.92041015625,-3.41796875,17.51708984375,-383.70310617793837,-389.71010439970166,-323.95645061328025,1745594642.0344381
338,1,1,6,327,15,-0.0166015625,1.1572265625,-0.1435546875,6.34765625,-5.92041015625,18.9208984375,-380.70935868754657,-392.70385189009346,-323.95645061328025,1745594642.0409842
339,1,1,6,342,15,-0.10693359375,0.96435546875,-0.11181640625,5.79833984375,-4.8828125,14.2822265625,-373.22498996156713,-395.69759938048526,-313.42532537726464,1745594642.0482495
340,1,1,6,357,15,-0.015625,1.03857421875,-0.08251953125,9.46044921875,-13.12255859375,10.3759765625,-362.74687374519584,-392.70385189009346,-332.9831293870079,1745594642.0547082
341,1,1,6,372,15,-0.1513671875,1.02783203125,-0.00146484375,10.8642578125,-13.18359375,9.27734375,-365.7406212355877,-403.18196810646475,-329.97423646243203,1745594642.061206
342,1,1,6,387,15,-0.1142578125,1.03369140625,-0.13232421875,8.23974609375,-9.46044921875,5.31005859375,-365.7406212355877,-413.660084322836,-323.95645061328025,1745594642.0698404
343,1,1,6,402,15,0.0478515625,1.01611328125,-0.115234375,4.8828125,-10.31494140625,5.37109375,-359.7531262548041,-400.18822061607295,-313.42532537726464,1745594642.0763602
344,1,1,6,417,15,-0.1455078125,0.98291015625,-0.04443359375,2.50244140625,-12.87841796875,2.62451171875,-353.7656312740205,-394.20072563528936,-335.99202231158387,1745594642.0828276
345,1,1,6,432,15,-0.01708984375,1.04931640625,-0.05419921875,4.21142578125,-16.78466796875,0.8544921875,-361.24999999999994,-383.7226094189181,-317.93866476412853,1745594642.090365
346,1,1,6,447,15,-0.015625,1.025390625,-0.07275390625,3.47900390625,-10.986328125,0.3662109375,-355.2625050192164,-392.70385189009346,-329.97423646243203,1745594642.0969133
347,1,1,6,462,15,-0.04052734375,1.04052734375,-0.11181640625,2.3193359375,-6.16455078125,-2.44140625,-359.7531262548041,-389.71010439970166,-332.9831293870079,1745594642.103365
348,1,1,6,477,15,-0.07763671875,1.03076171875,-0.14501953125,-0.06103515625,-4.2724609375,-4.5166015625,-353.7656312740205,-398.6913468708771,-335.99202231158387,1745594642.1106296
349,1,1,6,492,15,-0.09619140625,1.01513671875,-0.08935546875,-2.50244140625,-6.2255859375,-3.84521484375,-355.2625050192164,-392.70385189009346,-323.95645061328025,1745594642.1186147
350,1,1,6,507,15,-0.1611328125,0.9921875,-0.0966796875,-4.39453125,-6.65283203125,-1.52587890625,-349.27501003843287,-410.6663368324442,-340.50536169844764,1745594642.1251113
351,1,1,6,522,15,-0.17138671875,0.947265625,-0.10546875,-6.2255859375,-8.11767578125,2.62451171875,-355.2625050192164,-385.219483164114,-354.0453798590392,1745594642.1377382
352,1,1,6,537,15,-0.0810546875,0.9697265625,-0.1103515625,-8.30078125,-9.09423828125,5.0048828125,-355.2625050192164,-407.67258934205245,-361.5676121704789,1745594642.1442149
353,1,1,6,552,15,-0.037109375,1.0458984375,-0.1435546875,-10.68115234375,-8.7890625,2.25830078125,-352.2687575288246,-400.18822061607295,-354.0453798590392,1745594642.1514897
354,1,1,6,567,15,-0.00341796875,1.04150390625,-0.0732421875,-11.90185546875,-7.26318359375,-2.86865234375,-350.77188378362877,-401.68509436126885,-342.0098081607356,1745594642.158005
355,1,1,6,582,15,0.00390625,1.07470703125,-0.11669921875,-12.8173828125,-8.544921875,-9.1552734375,-365.7406212355877,-403.18196810646475,-354.0453798590392,1745594642.1658864
356,1,1,6,597,15,-0.12255859375,0.9609375,0.05615234375,-8.48388671875,-9.94873046875,-10.55908203125,-371.72811621637123,-401.68509436126885,-345.01870108531153,1745594642.249432
357,1,1,6,612,15,0.013671875,1.01611328125,-0.04931640625,-8.7890625,-5.31005859375,-13.916015625,-383.70310617793837,-389.71010439970166,-364.5765050950548,1745594642.25598
358,1,1,6,627,15,0.0390625,1.0341796875,-0.0908203125,-8.48388671875,-1.220703125,-20.44677734375,-388.19372741352606,-400.18822061607295,-358.55871924590303,1745594642.2624478
359,1,1,6,642,15,0.0048828125,1.0224609375,-0.076171875,-8.30078125,-3.41796875,-28.3203125,-356.7593787644123,-383.7226094189181,-345.01870108531153,1745594642.2711327
360,1,1,6,657,15,-0.015625,1.04248046875,-0.099609375,-7.50732421875,-5.18798828125,-32.5927734375,-379.2124849423507,-398.6913468708771,-345.01870108531153,1745594642.27783
361,1,1,6,672,15,-0.14404296875,1.02587890625,-0.07568359375,-7.8125,-5.615234375,-30.6396484375,-383.70310617793837,-403.18196810646475,-354.0453798590392,1745594643.1072268
362,1,1,6,687,15,-0.14990234375,1.00244140625,-0.0625,-9.09423828125,-6.103515625,-29.35791015625,-398.67184362989735,-392.70385189009346,-351.0364869344633,1745594643.113754
363,1,1,6,702,15,-0.09619140625,1.0400390625,-0.0712890625,-9.1552734375,-2.38037109375,-27.099609375,-397.17496988470145,-398.6913468708771,-345.01870108531153,1745594643.1202722
364,1,1,6,717,15,-0.1328125,1.048828125,0.01123046875,-8.72802734375,0.9765625,-27.9541015625,-397.17496988470145,-386.7163569093099,-366.08095155734276,1745594643.1286757
365,1,1,6,732,15,-0.03857421875,1.07666015625,-0.0048828125,-7.62939453125,3.662109375,-31.25,-398.67184362989735,-385.219483164114,-361.5676121704789,1745594643.7608669
366,1,1,6,747,15,-0.02197265625,1.10546875,-0.02880859375,-6.34765625,4.7607421875,-37.65869140625,-404.6593386106809,-377.7351144381346,-348.0275940098874,1745594643.7685673
367,1,1,6,762,15,0.10986328125,1.1787109375,0.01416015625,-6.53076171875,-1.03759765625,-49.62158203125,-412.1437073366603,-382.2257356737222,-348.0275940098874,1745594643.8080752
368,1,1,6,777,15,0.1259765625,1.2001953125,-0.02734375,-2.0751953125,0.91552734375,-61.95068359375,-401.6655911202891,-374.7413669477428,-361.5676121704789,1745594643.8145676
369,1,1,6,792,15,0.19384765625,1.35595703125,-0.01708984375,5.06591796875,4.39453125,-77.5146484375,-410.64683359146443,-365.7601244765674,-360.063165708191,1745594643.840734
370,1,1,6,807,15,0.29736328125,1.3916015625,-0.02685546875,10.1318359375,23.681640625,-90.087890625,-400.1687173750932,-358.27575575058796,-331.47868292472,1745594643.8478832
371,1,1,6,822,15,0.1123046875,1.29833984375,0.1142578125,14.22119140625,31.31103515625,-105.65185546875,-421.1249498078357,-355.28200826019616,-355.54982632132715,1745594643.8543606
372,1,1,6,837,15,0.3603515625,1.31640625,-0.01708984375,16.7236328125,31.6162109375,-122.314453125,-419.62807606263976,-346.30076578902083,-361.5676121704789,1745594643.9251728
373,1,1,6,852,15,-0.0546875,1.322265625,-0.07275390625,15.5029296875,41.68701171875,-126.15966796875,-419.62807606263976,-346.30076578902083,-348.0275940098874,1745594643.9317484
374,1,1,6,867,15,0.20458984375,1.0390625,-0.23583984375,21.17919921875,38.51318359375,-117.61474609375,-428.60931853381516,-322.3507858658865,-342.0098081607356,1745594643.976255
375,1,1,6,882,15,1.64306640625,0.51708984375,0.2978515625,23.74267578125,49.25537109375,-61.46240234375,-407.6530861010727,-319.35703837549477,-352.54093339675126,1745594643.982783
376,1,1,6,897,15,1.521484375,-0.2275390625,0.40283203125,1.5869140625,82.03125,7.50732421875,-431.60306602420695,-311.87266964951533,-345.01870108531153,1745594644.0054805
377,1,1,6,912,15,1.2802734375,0.03955078125,0.4970703125,-19.6533203125,54.26025390625,105.3466796875,-418.1312023174439,-301.394553433144,-352.54093339675126,1745594644.0124314
378,1,1,6,927,15,1.1201171875,0.50390625,0.34814453125,-51.69677734375,14.16015625,187.80517578125,-404.6593386106809,-328.3382808466701,-319.4431112264165,1745594644.0191123
379,1,1,6,942,15,0.33251953125,1.77197265625,-0.32080078125,-68.42041015625,10.7421875,243.0419921875,-398.67184362989735,-331.3320283370619,-343.5142546230236,1745594644.0256276
380,1,1,6,957,15,-0.4072265625,1.18701171875,-0.15673828125,-74.5849609375,25.634765625,260.43701171875,-371.72811621637123,-340.3132708082373,-331.47868292472,1745594644.0321612
381,1,1,6,972,15,-1.5087890625,3.10693359375,-0.90576171875,-57.80029296875,-0.1220703125,244.44580078125,-368.7343687259795,-373.2444932025469,-307.40753952811286,1745594644.0497715
382,1,1,6,987,15,-10.63232421875,2.95947265625,-3.5234375,49.01123046875,7.26318359375,-43.0908203125,-314.8469138989273,-401.68509436126885,-290.8586284429455,1745594644.0563922
383,1,1,7,2,15,0.44970703125,-0.47216796875,0.43896484375,89.35546875,-128.84521484375,-171.20361328125,-334.3062725864739,-364.2632507313715,-305.9030930658249,1745594644.062882
384,1,1,7,17,15,0.68505859375,-0.09765625,0.6826171875,9.27734375,-78.43017578125,10.7421875,-323.82815637010265,-361.2695032409797,-302.89420014124903,1745594644.0693696
385,1,1,7,32,15,-0.57421875,0.7939453125,-0.05615234375,-13.671875,-24.84130859375,30.94482421875,-340.29376756725753,-352.28826076980437,-314.9297718395526,1745594644.0763898
386,1,1,7,47,15,-0.337890625,0.95703125,-0.0869140625,-0.9765625,-28.86962890625,19.1650390625,-344.78438880284517,-338.81639706304134,-316.43421830184053,1745594644.0828621
387,1,1,7,62,15,-0.140625,1.04736328125,0.1162109375,-5.67626953125,-3.41796875,27.2216796875,-337.30002007686574,-356.77888200539206,-323.95645061328025,1745594644.090335
388,1,1,7,77,15,0.39501953125,1.27880859375,-0.2265625,-0.18310546875,9.27734375,21.30126953125,-326.82190386049444,-367.2569982217633,-313.42532537726464,1745594644.2032735
389,1,1,7,92,15,0.14013671875,1.173828125,-0.29931640625,5.79833984375,22.0947265625,12.87841796875,-349.27501003843287,-361.2695032409797,-326.9653435378562,1745594644.2098076
390,1,1,7,107,15,-0.2373046875,0.98974609375,-0.15576171875,1.220703125,9.033203125,7.87353515625,-335.80314633166984,-355.28200826019616,-320.94755768870436,1745594644.2170892
391,1,1,7,122,15,-0.14697265625,1.041015625,0.02294921875,3.2958984375,-6.65283203125,17.27294921875,-341.7906413124534,-361.2695032409797,-332.9831293870079,1745594644.2235458
392,1,1,7,137,15,-0.01806640625,1.0869140625,-0.00244140625,3.72314453125,-5.79833984375,20.5078125,-341.7906413124534,-367.2569982217633,-323.95645061328025,1745594644.3008091
393,1,1,7,152,15,-0.169921875,0.9833984375,-0.10791015625,4.150390625,-9.33837890625,24.2919921875,-322.3312826249068,-376.2382406929387,-345.01870108531153,1745594644.3074322
394,1,1,7,167,15,-0.037109375,0.98681640625,0.01171875,5.859375,-16.9677734375,21.42333984375,-340.29376756725753,-362.7663769861756,-320.94755768870436,1745594644.3138921
395,1,1,7,182,15,-0.05712890625,0.99267578125,-0.04443359375,5.37109375,-13.0615234375,19.59228515625,-316.3437876441232,-364.2632507313715,-332.9831293870079,1745594644.3209314
396,1,1,7,197,15,-0.0625,1.0146484375,-0.08984375,5.859375,-15.68603515625,16.9677734375,-310.3562926633397,-382.2257356737222,-332.9831293870079,1745594644.3274448
397,1,1,7,212,15,-0.05078125,0.9658203125,-0.0166015625,5.31005859375,-10.80322265625,15.56396484375,-322.3312826249068,-362.7663769861756,-325.4608970755682,1745594644.3339016
398,1,1,7,227,15,0.0224609375,0.9443359375,-0.048828125,2.0751953125,-5.9814453125,12.26806640625,-310.3562926633397,-382.2257356737222,-329.97423646243203,1745594644.3416398
399,1,1,7,242,15,0.0302734375,1.01953125,-0.087890625,2.0751953125,-1.8310546875,7.8125,-317.8406613893191,-376.2382406929387,-331.47868292472,1745594644.3481987
400,1,1,7,257,15,0.0341796875,1.080078125,-0.15087890625,1.64794921875,-2.0751953125,1.28173828125,-311.85316640853557,-358.27575575058796,-328.46979000014414,1745594644.3548584
401,1,1,7,272,15,-0.11376953125,1.0205078125,-0.02392578125,3.23486328125,-2.9296875,1.15966796875,-311.85316640853557,-376.2382406929387,-331.47868292472,1745594644.371206
402,1,1,7,287,15,-0.11328125,1.04150390625,-0.1396484375,3.35693359375,-3.60107421875,1.3427734375,-305.8656714277519,-382.2257356737222,-340.50536169844764,1745594644.3777418
403,1,1,7,302,15,-0.0810546875,1.013671875,-0.10888671875,1.89208984375,-3.5400390625,3.35693359375,-313.3500401537314,-356.77888200539206,-340.50536169844764,1745594644.3843143
404,1,1,7,317,15,-0.0537109375,0.96923828125,-0.09375,0.06103515625,-5.4931640625,2.86865234375,-310.3562926633397,-361.2695032409797,-337.4964687738718,1745594644.3920026
405,1,1,7,332,15,-0.12255859375,0.98681640625,-0.05859375,-3.23486328125,-6.4697265625,-0.30517578125,-295.3875552113807,-371.747619457351,-343.5142546230236,1745594644.398555
406,1,1,7,347,15,0.04345703125,1.044921875,-0.09033203125,-7.26318359375,-7.26318359375,-3.72314453125,-304.368797682556,-368.75387196695925,-360.063165708191,1745594644.4059496
407,1,1,7,362,15,0.0166015625,1.0576171875,-0.08837890625,-7.75146484375,-8.11767578125,-9.6435546875,-317.8406613893191,-386.7163569093099,-355.54982632132715,1745594644.4124355
408,1,1,7,377,15,-0.02294921875,1.07763671875,-0.10302734375,-8.60595703125,-8.9111328125,-16.05224609375,-295.3875552113807,-377.7351144381346,-343.5142546230236,1745594644.4191403
409,1,1,7,392,15,-0.1298828125,0.974609375,0.0087890625,-5.43212890625,-8.4228515625,-15.56396484375,-313.3500401537314,-392.70385189009346,-354.0453798590392,1745594644.4265058
410,1,1,7,407,15,-0.0419921875,1.005859375,-0.10888671875,-7.8125,-6.53076171875,-15.2587890625,-313.3500401537314,-382.2257356737222,-348.0275940098874,1745594644.4329922
411,1,1,7,422,15,-0.0986328125,1.02734375,-0.10595703125,-9.3994140625,-5.31005859375,-15.68603515625,-322.3312826249068,-373.2444932025469,-360.063165708191,1745594644.4416175
412,1,1,7,437,15,-0.07470703125,0.9853515625,-0.09716796875,-11.5966796875,-7.8125,-17.4560546875,-310.3562926633397,-382.2257356737222,-361.5676121704789,1745594644.448272
413,1,1,7,452,15,-0.04638671875,1.00732421875,-0.08251953125,-12.5732421875,-8.60595703125,-18.37158203125,-314.8469138989273,-380.7288619285263,-339.00091523615976,1745594644.4547524
414,1,1,7,467,15,0.00244140625,1.0185546875,-0.0615234375,-14.22119140625,-6.04248046875,-20.263671875,-326.82190386049444,-377.7351144381346,-343.5142546230236,1745594644.4620287
415,1,1,7,482,15,-0.0224609375,1.06201171875,-0.09619140625,-15.19775390625,-3.96728515625,-25.08544921875,-329.81565135088624,-391.20697814489756,-345.01870108531153,1745594644.4687648
416,1,1,7,497,15,-0.044921875,1.07958984375,-0.00146484375,-13.12255859375,-4.57763671875,-27.52685546875,-353.7656312740205,-373.2444932025469,-345.01870108531153,1745594644.4752624
417,1,1,7,512,15,-0.0732421875,1.064453125,-0.01123046875,-10.19287109375,-4.45556640625,-30.57861328125,-337.30002007686574,-377.7351144381346,-351.0364869344633,1745594644.4817462
418,1,1,7,527,15,0.0,1.0908203125,0.04150390625,-2.3193359375,10.68115234375,-31.31103515625,-344.78438880284517,-356.77888200539206,-354.0453798590392,1745594644.48911
419,1,1,7,542,15,-0.01123046875,1.119140625,-0.03515625,-1.708984375,13.5498046875,-37.7197265625,-355.2625050192164,-374.7413669477428,-340.50536169844764,1745594644.4971614
420,1,1,7,557,15,0.06201171875,1.189453125,0.0244140625,-3.2958984375,10.07080078125,-42.6025390625,-350.77188378362877,-380.7288619285263,-355.54982632132715,1745594644.5044715
421,1,1,7,572,15,0.09814453125,1.22607421875,0.048828125,1.40380859375,8.7890625,-59.38720703125,-349.27501003843287,-349.2945132794126,-348.0275940098874,1745594644.5112145
422,1,1,7,587,15,0.23583984375,1.3251953125,0.0751953125,7.8125,8.056640625,-72.998046875,-370.23124247117534,-353.78513451500027,-340.50536169844764,1745594644.518069
423,1,1,7,602,15,0.17236328125,1.41015625,0.09912109375,14.09912109375,10.009765625,-93.07861328125,-377.71561119715483,-353.78513451500027,-358.55871924590303,1745594644.5255988
424,1,1,7,617,15,0.2158203125,1.326171875,0.03759765625,21.3623046875,10.07080078125,-110.3515625,-368.7343687259795,-337.31952331784544,-339.00091523615976,1745594644.6382895
425,1,1,7,632,15,0.134765625,1.4140625,-0.00537109375,28.99169921875,10.009765625,-120.05615234375,-371.72811621637123,-340.3132708082373,-342.0098081607356,1745594644.6489801
426,1,1,7,647,15,-0.0478515625,1.3486328125,-0.07421875,26.611328125,8.6669921875,-117.67578125,-391.1874749039178,-338.81639706304134,-340.50536169844764,1745594644.6572294
427,1,1,7,662,15,-0.09716796875,0.88037109375,-0.2578125,19.10400390625,5.31005859375,-107.84912109375,-361.24999999999994,-319.35703837549477,-345.01870108531153,1745594644.6653047
428,1,1,7,677,15,0.619140625,0.39892578125,-0.3154296875,24.59716796875,-1.46484375,-85.38818359375,-382.20623243274247,-301.394553433144,-352.54093339675126,1745594644.6743543
429,1,1,7,692,15,1.70263671875,0.40625,0.33349609375,12.39013671875,4.57763671875,5.4931640625,-374.72186370676303,-283.43206849079326,-373.6031838687825,1745594644.682472
430,1,1,7,707,15,1.4423828125,0.00537109375,0.47021484375,-4.69970703125,34.24072265625,89.4775390625,-379.2124849423507,-287.922689726381,-349.5320404721753,1745594644.6916573
431,1,1,7,722,15,0.908203125,0.314453125,0.23876953125,-38.26904296875,8.11767578125,171.0205078125,-377.71561119715483,-307.3820484139276,-343.5142546230236,1745594644.707416
432,1,1,7,737,15,0.64208984375,1.1064453125,-0.044921875,-62.56103515625,-3.72314453125,243.7744140625,-373.22498996156713,-320.85391212069067,-332.9831293870079,1745594644.714789
433,1,1,7,752,15,-0.03515625,1.61962890625,-0.16845703125,-75.74462890625,-4.150390625,272.4609375,-346.28126254804107,-304.3883009235358,-328.46979000014414,1745594644.72131
434,1,1,7,767,15,-0.31689453125,1.71630859375,-0.279296875,-58.04443359375,9.70458984375,247.55859375,-350.77188378362877,-326.8414071014742,-311.9208789149767,1745594644.727792
435,1,1,7,782,15,-7.1171875,2.81689453125,-1.3330078125,9.58251953125,57.80029296875,104.736328125,-329.81565135088624,-358.27575575058796,-314.9297718395526,1745594644.735127
436,1,1,7,797,15,-2.31689453125,-0.17919921875,0.7666015625,-27.83203125,-63.720703125,-260.55908203125,-311.85316640853557,-373.2444932025469,-290.8586284429455,1745594644.7416039
437,1,1,7,812,15,0.33740234375,0.3740234375,-0.06787109375,77.81982421875,-80.2001953125,16.41845703125,-313.3500401537314,-346.30076578902083,-278.8230567446419,1745594644.7502906
438,1,1,7,827,15,0.4873046875,0.76123046875,0.55908203125,3.84521484375,-25.0244140625,-16.78466796875,-331.31252509608214,-338.81639706304134,-308.9119859904008,1745594644.7568665
439,1,1,7,842,15,-0.650390625,0.79443359375,0.234375,-15.9912109375,-20.1416015625,24.35302734375,-331.31252509608214,-331.3320283370619,-308.9119859904008,1745594644.7633176
440,1,1,7,857,15,-0.24755859375,1.0927734375,-0.17236328125,-3.47900390625,-53.77197265625,1.46484375,-332.809398841278,-326.8414071014742,-317.93866476412853,1745594644.770538
441,1,1,7,872,15,0.0947265625,0.98193359375,-0.07958984375,12.939453125,-24.59716796875,1.52587890625,-332.809398841278,-340.3132708082373,-317.93866476412853,1745594644.777311
442,1,1,7,887,15,0.0791015625,1.09375,-0.240234375,12.20703125,-23.86474609375,7.080078125,-335.80314633166984,-322.3507858658865,-311.9208789149767,1745594644.783777
443,1,1,7,902,15,-0.25927734375,0.9697265625,-0.24658203125,8.60595703125,-20.20263671875,-2.8076171875,-341.7906413124534,-328.3382808466701,-326.9653435378562,1745594644.7910464
444,1,1,7,917,15,-0.2001953125,0.8193359375,-0.1220703125,7.4462890625,-15.80810546875,4.5166015625,-331.31252509608214,-320.85391212069067,-326.9653435378562,1745594644.7991204
445,1,1,7,932,15,-0.25439453125,0.9462890625,-0.04345703125,3.47900390625,-11.41357421875,18.00537109375,-335.80314633166984,-329.835154591866,-325.4608970755682,1745594644.8056293
446,1,1,7,947,15,-0.03857421875,1.08056640625,-0.1767578125,-4.0283203125,-12.5732421875,22.03369140625,-323.82815637010265,-325.3445333562783,-319.4431112264165,1745594644.853406
447,1,1,7,962,15,-0.0283203125,1.10205078125,-0.10107421875,-3.5400390625,-11.16943359375,23.0712890625,-341.7906413124534,-313.36954339471123,-329.97423646243203,1745594644.8599539
448,1,1,7,977,15,-0.0205078125,1.07421875,-0.00341796875,-3.60107421875,-9.765625,18.00537109375,-331.31252509608214,-302.8914271783399,-332.9831293870079,1745594644.8664494
449,1,1,7,992,15,-0.103515625,1.05712890625,-0.0185546875,-0.3662109375,-8.6669921875,16.17431640625,-332.809398841278,-329.835154591866,-320.94755768870436,1745594644.8736537
450,1,1,8,7,15,-0.138671875,0.99853515625,0.0048828125,0.67138671875,-5.31005859375,16.17431640625,-326.82190386049444,-317.86016463029887,-319.4431112264165,1745594644.8801835
451,1,1,8,22,15,-0.03466796875,0.93505859375,-0.04833984375,-0.18310546875,-3.0517578125,14.46533203125,-329.81565135088624,-329.835154591866,-314.9297718395526,1745594644.8866658
452,1,1,8,37,15,-0.001953125,0.98974609375,-0.072265625,-1.220703125,-5.7373046875,14.22119140625,-329.81565135088624,-329.835154591866,-314.9297718395526,1745594644.894206
453,1,1,8,52,15,-0.0771484375,1.07177734375,-0.0576171875,0.0,-9.521484375,11.90185546875,-323.82815637010265,-343.30701829862903,-323.95645061328025,1745594644.9124784
454,1,1,8,67,15,0.00146484375,1.033203125,-0.06005859375,-0.3662109375,-8.4228515625,10.19287109375,-322.3312826249068,-344.80389204382493,-325.4608970755682,1745594644.924215
455,1,1,8,82,15,-0.0126953125,1.0537109375,-0.083984375,-2.38037109375,-2.74658203125,9.94873046875,-320.8344088797109,-328.3382808466701,-329.97423646243203,1745594644.9307463
456,1,1,8,97,15,-0.01611328125,1.0419921875,-0.11669921875,-4.57763671875,-0.48828125,7.01904296875,-292.39380772098895,-338.81639706304134,-329.97423646243203,1745594644.9376962
457,1,1,8,112,15,-0.02734375,1.03076171875,-0.08056640625,-7.01904296875,-1.5869140625,3.662109375,-301.3750501921643,-329.835154591866,-349.5320404721753,1745594644.944169
458,1,1,8,127,15,-0.041015625,1.01123046875,-0.07568359375,-7.568359375,-3.96728515625,1.3427734375,-314.8469138989273,-347.7976395342167,-325.4608970755682,1745594644.9518657
459,1,1,8,142,15,-0.0439453125,1.0048828125,-0.06884765625,-9.46044921875,-6.89697265625,0.42724609375,-307.3625451729478,-326.8414071014742,-325.4608970755682,1745594644.9589872
460,1,1,8,157,15,-0.0380859375,1.0009765625,-0.0703125,-11.04736328125,-7.87353515625,-1.0986328125,-305.8656714277519,-346.30076578902083,-337.4964687738718,1745594644.9655159
461,1,1,8,172,15,-0.0205078125,1.01123046875,-0.05419921875,-13.5498046875,-5.859375,-3.662109375,-325.32503011529855,-347.7976395342167,-339.00091523615976,1745594644.9719894
462,1,1,8,187,15,-0.02001953125,1.04150390625,-0.0556640625,-15.13671875,-4.150390625,-7.38525390625,-311.85316640853557,-334.32577582745364,-325.4608970755682,1745594644.9790928
463,1,1,8,202,15,-0.01708984375,1.02685546875,-0.00537109375,-13.916015625,-1.28173828125,-10.7421875,-323.82815637010265,-356.77888200539206,-358.55871924590303,1745594644.9856231
464,1,1,8,217,15,-0.013671875,1.037109375,0.0048828125,-10.68115234375,-2.01416015625,-14.22119140625,-317.8406613893191,-334.32577582745364,-349.5320404721753,1745594644.9922543
465,1,1,8,232,15,0.04052734375,1.005859375,0.09912109375,-8.30078125,-1.89208984375,-17.333984375,-323.82815637010265,-343.30701829862903,-337.4964687738718,1745594644.9999444
466,1,1,8,247,15,0.0380859375,1.0458984375,-0.0361328125,-8.11767578125,1.03759765625,-22.5830078125,-325.32503011529855,-337.31952331784544,-349.5320404721753,1745594645.0068147
467,1,1,8,262,15,0.02294921875,1.09130859375,-0.02587890625,-6.2255859375,0.30517578125,-28.99169921875,-322.3312826249068,-334.32577582745364,-317.93866476412853,1745594645.0133643
468,1,1,8,277,15,0.03369140625,1.05810546875,-0.00732421875,-2.38037109375,0.6103515625,-36.68212890625,-341.7906413124534,-331.3320283370619,-332.9831293870079,1745594645.0199766
469,1,1,8,292,15,0.0869140625,1.05126953125,0.03369140625,-1.89208984375,4.150390625,-45.83740234375,-343.2875150576493,-344.80389204382493,-349.5320404721753,1745594645.0265014
470,1,1,8,307,15,0.1083984375,1.08837890625,0.0673828125,-1.220703125,1.89208984375,-60.72998046875,-350.77188378362877,-322.3507858658865,-360.063165708191,1745594645.0329616
471,1,1,8,322,15,0.15966796875,1.2265625,0.0244140625,1.708984375,-0.732421875,-80.01708984375,-350.77188378362877,-334.32577582745364,-345.01870108531153,1745594645.045151
472,1,1,8,337,15,0.26318359375,1.353515625,-0.0029296875,1.8310546875,-5.7373046875,-91.85791015625,-341.7906413124534,-338.81639706304134,-340.50536169844764,1745594645.05269
473,1,1,8,352,15,0.23779296875,1.42138671875,-0.02587890625,8.30078125,1.64794921875,-105.95703125,-343.2875150576493,-329.835154591866,-345.01870108531153,1745594645.059785
474,1,1,8,367,15,0.18310546875,1.341796875,-0.01611328125,19.53125,29.4189453125,-101.50146484375,-353.7656312740205,-308.8789221591235,-345.01870108531153,1745594645.066602
475,1,1,8,382,15,0.06201171875,1.2470703125,-0.03759765625,25.0244140625,32.470703125,-112.36572265625,-364.2437474903918,-311.87266964951533,-342.0098081607356,1745594645.0730672
476,1,1,8,397,15,0.02587890625,1.23876953125,0.056640625,26.4892578125,32.40966796875,-115.8447265625,-370.23124247117534,-307.3820484139276,-337.4964687738718,1745594645.0796518
477,1,1,8,412,15,0.14990234375,1.1474609375,-0.25927734375,19.53125,25.08544921875,-122.9248046875,-368.7343687259795,-280.4383210004015,-339.00091523615976,1745594645.086153
478,1,1,8,427,15,0.21630859375,0.85009765625,-0.279296875,22.03369140625,29.47998046875,-98.32763671875,-371.72811621637123,-283.43206849079326,-352.54093339675126,1745594645.0926497
479,1,1,8,442,15,1.39697265625,0.30224609375,0.2353515625,19.83642578125,36.1328125,-42.3583984375,-377.71561119715483,-266.9664572936385,-351.0364869344633,1745594645.207778
480,1,1,8,457,15,1.1611328125,-0.03759765625,0.32568359375,0.18310546875,51.26953125,35.33935546875,-365.7406212355877,-281.93519474559736,-332.9831293870079,1745594645.2143488
481,1,1,8,472,15,1.06982421875,0.2216796875,0.232421875,-24.5361328125,33.935546875,104.6142578125,-353.7656312740205,-298.40080594275224,-339.00091523615976,1745594645.2209184
482,1,1,8,487,15,1.10400390625,0.51123046875,0.31640625,-49.25537109375,21.728515625,173.64501953125,-361.24999999999994,-298.40080594275224,-328.46979000014414,1745594645.2280974
483,1,1,8,502,15,0.83544921875,0.93115234375,0.2021484375,-57.4951171875,21.1181640625,209.28955078125,-368.7343687259795,-304.3883009235358,-314.9297718395526,1745594645.2345624
484,1,1,8,517,15,-0.03466796875,2.87744140625,-0.90234375,-45.47119140625,69.9462890625,267.08984375,-340.29376756725753,-322.3507858658865,-311.9208789149767,1745594645.2410324
485,1,1,8,532,15,-1.396484375,1.9375,-0.49560546875,-47.18017578125,64.697265625,228.21044921875,-344.78438880284517,-335.82264957264954,-305.9030930658249,1745594645.2482884
486,1,1,8,547,15,-8.58935546875,2.298828125,-2.06689453125,1.52587890625,-18.310546875,29.541015625,-329.81565135088624,-365.7601244765674,-272.8052708954901,1745594645.2562206
487,1,1,8,562,15,0.0732421875,-0.57958984375,1.0390625,39.6728515625,-92.71240234375,-192.2607421875,-329.81565135088624,-355.28200826019616,-280.32750320692986,1745594645.2626944
488,1,1,8,577,15,0.6982421875,0.3349609375,0.70947265625,34.66796875,-83.31298828125,20.5078125,-332.809398841278,-340.3132708082373,-290.8586284429455,1745594645.2694864
489,1,1,8,592,15,-0.30859375,1.03369140625,0.15966796875,-11.29150390625,-5.06591796875,3.35693359375,-344.78438880284517,-338.81639706304134,-298.3808607543852,1745594645.281169
490,1,1,8,607,15,-0.46142578125,0.9404296875,-0.1337890625,-16.17431640625,-20.1416015625,5.126953125,-349.27501003843287,-346.30076578902083,-281.83194966921775,1745594645.2883058
491,1,1,8,622,15,-0.1474609375,1.03955078125,-0.02880859375,0.3662109375,-10.1318359375,5.67626953125,-355.2625050192164,-338.81639706304134,-292.36307490523336,1745594645.2947934
492,1,1,8,637,15,-0.025390625,0.9990234375,-0.1201171875,2.9296875,-6.9580078125,12.51220703125,-340.29376756725753,-319.35703837549477,-293.86752136752136,1745594645.3026545
493,1,1,8,652,15,0.14697265625,1.130859375,-0.2353515625,1.52587890625,7.080078125,2.99072265625,-350.77188378362877,-340.3132708082373,-290.8586284429455,1745594645.7611945
494,1,1,8,667,15,-0.1591796875,1.02880859375,-0.2001953125,-2.01416015625,7.01904296875,-2.01416015625,-355.2625050192164,-335.82264957264954,-305.9030930658249,1745594645.7677262
495,1,1,8,682,15,-0.19677734375,0.99169921875,-0.07958984375,-2.197265625,-5.859375,2.62451171875,-350.77188378362877,-329.835154591866,-311.9208789149767,1745594645.7741885
496,1,1,8,697,15,-0.142578125,1.0009765625,0.0283203125,-4.33349609375,-3.7841796875,7.8125,-344.78438880284517,-343.30701829862903,-292.36307490523336,1745594645.7813048
497,1,1,8,712,15,-0.07177734375,1.01171875,0.02978515625,-2.8076171875,-2.9296875,9.8876953125,-344.78438880284517,-328.3382808466701,-281.83194966921775,1745594645.7878838
498,1,1,8,727,15,-0.080078125,1.0908203125,-0.00341796875,0.48828125,-1.28173828125,13.73291015625,-344.78438880284517,-343.30701829862903,-268.29193150862625,1745594645.7945662
499,1,1,8,742,15,-0.0166015625,1.0224609375,0.07080078125,5.9814453125,-6.40869140625,12.51220703125,-340.29376756725753,-334.32577582745364,-301.38975367896103,1745594645.8017087
500,1,1,8,757,15,-0.05224609375,1.00634765625,-0.0361328125,9.46044921875,-4.150390625,13.24462890625,-340.29376756725753,-329.835154591866,-290.8586284429455,1745594645.8093421
501,1,1,8,772,15,-0.26318359375,1.04052734375,-0.07177734375,10.68115234375,-6.9580078125,10.3759765625,-340.29376756725753,-347.7976395342167,-286.34528905608164,1745594645.8159127
502,1,1,8,787,15,-0.09619140625,0.93017578125,-0.08251953125,7.9345703125,-8.23974609375,13.916015625,-341.7906413124534,-338.81639706304134,-295.3719678298093,1745594645.8226318
503,1,1,8,802,15,-0.12548828125,0.9833984375,-0.11328125,6.77490234375,-10.6201171875,14.83154296875,-340.29376756725753,-329.835154591866,-293.86752136752136,1745594645.8291583
504,1,1,8,817,15,-0.01953125,1.0546875,-0.07763671875,4.57763671875,-13.85498046875,14.22119140625,-337.30002007686574,-338.81639706304134,-295.3719678298093,1745594645.8356571
505,1,1,8,832,15,-0.0068359375,1.033203125,-0.060546875,6.9580078125,-12.6953125,9.521484375,-331.31252509608214,-346.30076578902083,-289.35418198065753,1745594645.8427062
506,1,1,8,847,15,-0.0068359375,1.04541015625,-0.06103515625,6.40869140625,-8.7890625,3.5400390625,-334.3062725864739,-328.3382808466701,-298.3808607543852,1745594646.0696383
507,1,1,8,862,15,-0.0029296875,1.046875,-0.0703125,4.150390625,-1.46484375,1.0986328125,-311.85316640853557,-355.28200826019616,-301.38975367896103,1745594646.0761685
508,1,1,8,877,15,-0.01513671875,1.0439453125,-0.060546875,4.150390625,0.42724609375,-2.3193359375,-331.31252509608214,-335.82264957264954,-308.9119859904008,1745594646.082658
509,1,1,8,892,15,0.01708984375,1.01953125,-0.0615234375,4.638671875,-2.3193359375,-6.8359375,-325.32503011529855,-334.32577582745364,-311.9208789149767,1745594646.1342292
510,1,1,8,907,15,-0.06884765625,1.0498046875,-0.06640625,4.82177734375,-4.94384765625,-10.1318359375,-323.82815637010265,-331.3320283370619,-313.42532537726464,1745594646.140785
511,1,1,8,922,15,-0.10888671875,1.015625,-0.0634765625,4.39453125,-9.09423828125,-10.68115234375,-326.82190386049444,-335.82264957264954,-292.36307490523336,1745594646.153357
512,1,1,8,937,15,-0.10693359375,0.99169921875,-0.07666015625,2.62451171875,-10.31494140625,-9.70458984375,-313.3500401537314,-346.30076578902083,-305.9030930658249,1745594646.1612194
513,1,1,8,952,15,-0.09765625,0.98291015625,-0.09814453125,-0.79345703125,-8.1787109375,-10.43701171875,-313.3500401537314,-343.30701829862903,-329.97423646243203,1745594646.1740673
514,1,1,8,967,15,-0.10546875,0.98583984375,-0.138671875,-4.0283203125,-6.103515625,-9.27734375,-310.3562926633397,-346.30076578902083,-319.4431112264165,1745594646.1805978
515,1,1,8,982,15,-0.06640625,1.0361328125,-0.12060546875,-8.056640625,-6.2255859375,-9.521484375,-332.809398841278,-334.32577582745364,-293.86752136752136,1745594646.187188
516,1,1,8,997,15,-0.09521484375,1.00146484375,-0.078125,-10.498046875,-6.7138671875,-11.53564453125,-317.8406613893191,-334.32577582745364,-314.9297718395526,1745594646.1937025
517,1,1,9,12,15,-0.06689453125,1.06201171875,-0.06787109375,-12.02392578125,-8.7890625,-13.427734375,-329.81565135088624,-344.80389204382493,-317.93866476412853,1745594646.2002304
518,1,1,9,27,15,-0.125,0.97412109375,0.00146484375,-9.521484375,-10.8642578125,-14.5263671875,-334.3062725864739,-325.3445333562783,-305.9030930658249,1745594646.2488215
519,1,1,9,42,15,-0.0498046875,1.0283203125,-0.01611328125,-9.8876953125,-12.02392578125,-17.7001953125,-326.82190386049444,-349.2945132794126,-305.9030930658249,1745594646.2556617
520,1,1,9,57,15,0.0732421875,1.0576171875,-0.04443359375,-10.55908203125,-12.0849609375,-25.57373046875,-337.30002007686574,-331.3320283370619,-319.4431112264165,1745594646.2635648
521,1,1,9,72,15,0.02734375,1.09521484375,-0.1318359375,-9.94873046875,-9.3994140625,-36.43798828125,-343.2875150576493,-340.3132708082373,-328.46979000014414,1745594646.270676
522,1,1,9,87,15,-0.0498046875,1.048828125,-0.05859375,-10.498046875,-10.80322265625,-42.1142578125,-346.28126254804107,-355.28200826019616,-314.9297718395526,1745594646.2772906
523,1,1,9,102,15,-0.08056640625,1.060546875,-0.05078125,-9.70458984375,-11.29150390625,-44.5556640625,-349.27501003843287,-328.3382808466701,-316.43421830184053,1745594646.2837515
524,1,1,9,117,15,0.013671875,1.15966796875,-0.04248046875,-5.31005859375,-3.35693359375,-45.71533203125,-349.27501003843287,-320.85391212069067,-302.89420014124903,1745594646.2913473
525,1,1,9,132,15,0.01220703125,1.115234375,-0.06298828125,0.30517578125,8.23974609375,-48.27880859375,-362.74687374519584,-313.36954339471123,-319.4431112264165,1745594646.2979054
526,1,1,9,147,15,0.109375,1.32177734375,0.11083984375,2.13623046875,16.2353515625,-53.16162109375,-370.23124247117534,-313.36954339471123,-323.95645061328025,1745594646.3044775
527,1,1,9,162,15,0.095703125,1.26416015625,0.11328125,3.662109375,16.54052734375,-75.50048828125,-362.74687374519584,-313.36954339471123,-329.97423646243203,1745594646.3118649
528,1,1,9,177,15,0.189453125,1.388671875,0.19091796875,7.14111328125,18.61572265625,-94.1162109375,-382.20623243274247,-311.87266964951533,-328.46979000014414,1745594646.3247788
529,1,1,9,192,15,0.0390625,1.470703125,0.21630859375,9.33837890625,19.1650390625,-108.82568359375,-377.71561119715483,-317.86016463029887,-340.50536169844764,1745594646.3322055
530,1,1,9,207,15,0.13818359375,1.40478515625,0.14990234375,5.37109375,20.56884765625,-123.53515625,-394.18122239430966,-289.4195634715769,-326.9653435378562,1745594646.3399389
531,1,1,9,222,15,-0.02294921875,1.3515625,-0.072265625,1.5869140625,29.96826171875,-130.615234375,-380.70935868754657,-292.4133109619687,-319.4431112264165,1745594646.3467448
532,1,1,9,237,15,-0.0185546875,1.13623046875,-0.18603515625,6.53076171875,34.5458984375,-119.32373046875,-388.19372741352606,-292.4133109619687,-316.43421830184053,1745594646.3754334
533,1,1,9,252,15,0.6728515625,0.59814453125,-0.1708984375,12.87841796875,31.3720703125,-94.3603515625,-394.18122239430966,-289.4195634715769,-323.95645061328025,1745594646.3821282
534,1,1,9,267,15,1.4365234375,0.40966796875,0.18994140625,6.9580078125,46.875,-21.1181640625,-385.19997992313426,-280.4383210004015,-314.9297718395526,1745594646.388881
535,1,1,9,282,15,1.28076171875,0.12255859375,0.2607421875,4.39453125,73.79150390625,48.15673828125,-412.1437073366603,-281.93519474559736,-316.43421830184053,1745594646.3955994
536,1,1,9,297,15,1.21533203125,0.04052734375,0.30419921875,-17.4560546875,38.9404296875,109.130859375,-385.19997992313426,-280.4383210004015,-311.9208789149767,1745594646.5603843
537,1,1,9,312,15,0.24560546875,0.9912109375,-0.19775390625,-39.306640625,20.56884765625,196.533203125,-382.20623243274247,-298.40080594275224,-296.87641429209725,1745594646.568678
538,1,1,9,327,15,0.0078125,1.0751953125,-0.02001953125,-72.8759765625,-10.80322265625,255.18798828125,-362.74687374519584,-299.89767968794814,-295.3719678298093,1745594646.5752041
539,1,1,9,342,15,-0.6767578125,1.4482421875,-0.09033203125,-72.08251953125,-26.55029296875,258.30078125,-362.74687374519584,-328.3382808466701,-289.35418198065753,1745594646.582647
540,1,1,9,357,15,-1.5986328125,1.73046875,-0.37158203125,-64.697265625,-15.19775390625,229.18701171875,-343.2875150576493,-362.7663769861756,-272.8052708954901,1745594646.5891948
541,1,1,9,372,15,-9.0400390625,2.71337890625,-2.46484375,45.95947265625,42.8466796875,78.4912109375,-332.809398841278,-347.7976395342167,-277.318610282354,1745594646.59571
542,1,1,9,387,15,0.4404296875,-0.43408203125,1.22607421875,10.3759765625,-87.158203125,-218.93310546875,-316.3437876441232,-356.77888200539206,-254.75191334803475,1745594646.6030593
543,1,1,9,402,15,0.73779296875,0.04052734375,0.47705078125,36.4990234375,-59.326171875,65.24658203125,-316.3437876441232,-361.2695032409797,-274.309717357778,1745594646.6095781
544,1,1,9,417,15,-0.22802734375,0.68798828125,0.1376953125,-30.2734375,21.17919921875,26.4892578125,-349.27501003843287,-349.2945132794126,-289.35418198065753,1745594646.618033
545,1,1,9,432,15,-0.3125,1.08984375,-0.0107421875,-14.5263671875,5.55419921875,39.97802734375,-337.30002007686574,-356.77888200539206,-281.83194966921775,1745594646.624525
546,1,1,9,447,15,-0.126953125,1.19921875,0.0947265625,-3.662109375,11.1083984375,25.390625,-349.27501003843287,-346.30076578902083,-271.3008244332022,1745594646.6310563
547,1,1,9,462,15,0.2841796875,1.1826171875,-0.16796875,11.474609375,5.79833984375,26.0009765625,-341.7906413124534,-361.2695032409797,-268.29193150862625,1745594646.663087
548,1,1,9,477,15,0.11572265625,1.10888671875,-0.29541015625,8.23974609375,3.60107421875,15.31982421875,-337.30002007686574,-353.78513451500027,-281.83194966921775,1745594646.671326
549,1,1,9,492,15,-0.177734375,0.935546875,-0.12646484375,7.75146484375,-5.43212890625,9.46044921875,-350.77188378362877,-365.7601244765674,-272.8052708954901,1745594646.6778846
550,1,1,9,507,15,-0.12646484375,0.95458984375,-0.0068359375,4.69970703125,-16.11328125,10.68115234375,-346.28126254804107,-376.2382406929387,-266.7874850463383,1745594646.7301233
551,1,1,9,522,15,-0.04052734375,1.083984375,0.04638671875,3.41796875,-12.14599609375,15.9912109375,-346.28126254804107,-365.7601244765674,-277.318610282354,1745594646.7366297
552,1,1,9,537,15,0.00830078125,1.001953125,-0.0625,1.28173828125,-5.31005859375,14.5263671875,-350.77188378362877,-352.28826076980437,-277.318610282354,1745594646.743958
553,1,1,9,552,15,-0.0322265625,0.99609375,-0.06591796875,1.953125,-6.8359375,12.75634765625,-332.809398841278,-362.7663769861756,-266.7874850463383,1745594646.7596083
554,1,1,9,567,15,-0.068359375,0.95361328125,-0.02587890625,5.43212890625,-8.97216796875,8.6669921875,-334.3062725864739,-367.2569982217633,-271.3008244332022,1745594646.7993755
555,1,1,9,582,15,-0.0458984375,1.0361328125,0.0,7.26318359375,-7.99560546875,9.94873046875,-322.3312826249068,-358.27575575058796,-277.318610282354,1745594646.8117101
556,1,1,9,597,15,-0.09716796875,0.95263671875,-0.03173828125,7.6904296875,-3.23486328125,11.1083984375,-322.3312826249068,-355.28200826019616,-280.32750320692986,1745594646.83111
557,1,1,9,612,15,-0.09228515625,0.9833984375,-0.150390625,7.01904296875,-4.2724609375,13.916015625,-332.809398841278,-355.28200826019616,-269.79637797091425,1745594646.8392322
558,1,1,9,627,15,-0.0400390625,0.99609375,-0.13037109375,5.06591796875,-5.4931640625,15.7470703125,-334.3062725864739,-353.78513451500027,-284.84084259379364,1745594646.8474884
559,1,1,9,642,15,-0.0048828125,0.9912109375,-0.1025390625,1.708984375,-7.2021484375,14.83154296875,-316.3437876441232,-361.2695032409797,-271.3008244332022,1745594646.8556209
560,1,1,9,657,15,-0.06494140625,0.9951171875,-0.05517578125,1.5869140625,-10.92529296875,15.9912109375,-331.31252509608214,-377.7351144381346,-281.83194966921775,1745594646.8637612
561,1,1,9,672,15,-0.07177734375,1.00732421875,-0.0263671875,1.77001953125,-13.24462890625,15.56396484375,-332.809398841278,-352.28826076980437,-277.318610282354,1745594646.8722363
562,1,1,9,687,15,-0.02294921875,0.96826171875,-0.01611328125,2.13623046875,-11.90185546875,12.6953125,-316.3437876441232,-361.2695032409797,-281.83194966921775,1745594646.8808203
563,1,1,9,702,15,0.0009765625,1.03955078125,-0.02294921875,0.79345703125,-4.7607421875,11.8408203125,-317.8406613893191,-355.28200826019616,-283.3363961315057,1745594646.8891842
564,1,1,9,717,15,0.1201171875,1.078125,-0.0712890625,0.18310546875,-1.8310546875,7.75146484375,-317.8406613893191,-355.28200826019616,-272.8052708954901,1745594646.8973522
565,1,1,9,732,15,0.06005859375,1.06201171875,-0.07373046875,-0.30517578125,-6.40869140625,2.8076171875,-311.85316640853557,-347.7976395342167,-290.8586284429455,1745594646.9162452
566,1,1,9,747,15,0.06494140625,1.05419921875,-0.05224609375,0.0,-11.53564453125,-3.23486328125,-316.3437876441232,-353.78513451500027,-281.83194966921775,1745594646.9229686
567,1,1,9,762,15,0.02978515625,1.0283203125,-0.056640625,-0.732421875,-10.92529296875,-8.36181640625,-320.8344088797109,-367.2569982217633,-284.84084259379364,1745594646.9694755
568,1,1,9,777,15,0.0244140625,1.01416015625,-0.04296875,-2.25830078125,-10.1318359375,-12.20703125,-326.82190386049444,-349.2945132794126,-292.36307490523336,1745594646.9772983
569,1,1,9,792,15,-0.0009765625,1.01025390625,-0.08056640625,-3.5400390625,-10.986328125,-15.5029296875,-316.3437876441232,-374.7413669477428,-295.3719678298093,1745594646.9837966
570,1,1,9,807,15,-0.02978515625,0.98779296875,-0.0537109375,-4.5166015625,-13.24462890625,-19.1650390625,-331.31252509608214,-353.78513451500027,-298.3808607543852,1745594646.9905958
571,1,1,9,822,15,-0.04541015625,1.001953125,-0.0361328125,-5.06591796875,-14.09912109375,-20.93505859375,-314.8469138989273,-368.75387196695925,-301.38975367896103,1745594646.9977853
572,1,1,9,837,15,0.00146484375,1.00634765625,-0.08544921875,-6.8359375,-12.14599609375,-24.169921875,-320.8344088797109,-353.78513451500027,-313.42532537726464,1745594647.0042624
573,1,1,9,852,15,-0.015625,1.03759765625,-0.06201171875,-8.60595703125,-8.85009765625,-26.611328125,-326.82190386049444,-361.2695032409797,-302.89420014124903,1745594647.0107732
574,1,1,9,867,15,-0.00634765625,1.041015625,-0.06640625,-11.04736328125,-9.27734375,-31.982421875,-334.3062725864739,-361.2695032409797,-302.89420014124903,1745594647.0177224
575,1,1,9,882,15,-0.08154296875,1.0234375,0.03662109375,-8.36181640625,-11.3525390625,-33.8134765625,-344.78438880284517,-374.7413669477428,-305.9030930658249,1745594647.0242598
576,1,1,9,897,15,0.0009765625,1.0390625,-0.029296875,-8.1787109375,-12.02392578125,-38.26904296875,-341.7906413124534,-349.2945132794126,-298.3808607543852,1745594647.0318196
577,1,1,9,912,15,0.046875,1.0703125,0.01318359375,-7.6904296875,-10.68115234375,-46.142578125,-344.78438880284517,-367.2569982217633,-305.9030930658249,1745594647.0388536
578,1,1,9,927,15,0.09912109375,1.08154296875,0.0283203125,-6.40869140625,-9.8876953125,-59.2041015625,-355.2625050192164,-343.30701829862903,-329.97423646243203,1745594647.0453708
579,1,1,9,942,15,0.0478515625,1.08984375,0.01318359375,-3.662109375,-9.521484375,-72.81494140625,-344.78438880284517,-353.78513451500027,-326.9653435378562,1745594647.0518374
580,1,1,9,957,15,0.04638671875,1.1162109375,0.0380859375,-1.0986328125,-11.41357421875,-84.28955078125,-365.7406212355877,-343.30701829862903,-313.42532537726464,1745594647.0586724
581,1,1,9,972,15,0.00927734375,1.22900390625,-0.091796875,0.0,-8.6669921875,-93.8720703125,-356.7593787644123,-340.3132708082373,-307.40753952811286,1745594647.0651877
582,1,1,9,987,15,0.23095703125,1.51220703125,-0.0224609375,2.50244140625,1.46484375,-94.3603515625,-359.7531262548041,-346.30076578902083,-302.89420014124903,1745594647.0716608
583,1,1,10,2,15,0.353515625,1.392578125,0.0693359375,16.17431640625,41.56494140625,-89.17236328125,-373.22498996156713,-331.3320283370619,-319.4431112264165,1745594647.0792396
584,1,1,10,17,15,-0.009765625,1.32470703125,0.16650390625,14.70947265625,40.10009765625,-110.90087890625,-382.20623243274247,-319.35703837549477,-314.9297718395526,1745594647.1012506
585,1,1,10,32,15,0.17919921875,1.3427734375,-0.06884765625,10.68115234375,31.1279296875,-123.1689453125,-374.72186370676303,-319.35703837549477,-314.9297718395526,1745594647.1077898
586,1,1,10,47,15,-0.1015625,1.12841796875,-0.1796875,4.21142578125,39.1845703125,-123.22998046875,-388.19372741352606,-325.3445333562783,-302.89420014124903,1745594647.114259
587,1,1,10,62,15,0.1650390625,0.615234375,-0.27685546875,6.28662109375,29.4189453125,-116.02783203125,-391.1874749039178,-295.4070584523605,-305.9030930658249,1745594647.121269
588,1,1,10,77,15,1.67724609375,0.65087890625,0.10595703125,5.37109375,29.1748046875,-30.70068359375,-389.6906011587219,-316.36329088510297,-301.38975367896103,1745594647.1289306
589,1,1,10,92,15,1.43115234375,0.38427734375,0.236328125,-2.9296875,92.529296875,46.32568359375,-383.70310617793837,-292.4133109619687,-305.9030930658249,1745594647.1355822
590,1,1,10,107,15,1.01513671875,0.25634765625,0.296875,-21.97265625,72.265625,101.50146484375,-394.18122239430966,-310.3757959043194,-292.36307490523336,1745594647.182542
591,1,1,10,122,15,1.09814453125,0.68017578125,0.16748046875,-39.306640625,43.8232421875,162.4755859375,-383.70310617793837,-325.3445333562783,-298.3808607543852,1745594647.189174
592,1,1,10,137,15,0.171875,1.93212890625,-0.64794921875,-44.43359375,76.0498046875,251.15966796875,-368.7343687259795,-319.35703837549477,-290.8586284429455,1745594647.1957023
593,1,1,10,152,15,-0.70068359375,1.38671875,0.0908203125,-62.68310546875,-1.77001953125,223.32763671875,-356.7593787644123,-347.7976395342167,-277.318610282354,1745594647.202704
594,1,1,10,167,15,-0.78173828125,2.962890625,-0.60693359375,-65.12451171875,-17.51708984375,263.85498046875,-353.7656312740205,-355.28200826019616,-262.27414565947447,1745594647.2093709
595,1,1,10,182,15,-6.7236328125,2.6044921875,-1.7822265625,36.56005859375,13.7939453125,12.939453125,-302.8719239373602,-389.71010439970166,-236.69855580057938,1745594647.2159123
596,1,1,10,197,15,-0.62939453125,-0.2275390625,0.34375,22.52197265625,-79.345703125,-127.9296875,-311.85316640853557,-380.7288619285263,-245.72523457430705,1745594647.2227437
597,1,1,10,212,15,-1.35498046875,0.45361328125,-0.9580078125,40.6494140625,-97.71728515625,39.306640625,-314.8469138989273,-355.28200826019616,-251.74302042345886,1745594647.2301395
598,1,1,10,227,15,-0.54248046875,0.80029296875,-0.25732421875,11.41357421875,-73.73046875,-13.18359375,-325.32503011529855,-362.7663769861756,-256.2563598103227,1745594647.236698
599,1,1,10,242,15,-0.5068359375,0.56884765625,0.369140625,13.5498046875,-59.26513671875,17.88330078125,-329.81565135088624,-352.28826076980437,-262.27414565947447,1745594647.2435625
600,1,1,10,257,15,-0.6640625,0.80517578125,0.25537109375,8.1787109375,-80.9326171875,31.25,-331.31252509608214,-367.2569982217633,-247.22968103659503,1745594647.2501469
601,1,1,10,272,15,-0.21923828125,0.93994140625,0.25439453125,-2.50244140625,-58.04443359375,35.94970703125,-322.3312826249068,-347.7976395342167,-283.3363961315057,1745594647.2569299
602,1,1,10,287,15,-0.28076171875,1.13427734375,0.279296875,-9.521484375,-13.427734375,27.77099609375,-329.81565135088624,-362.7663769861756,-272.8052708954901,1745594647.2640538
603,1,1,10,302,15,0.205078125,1.17138671875,-0.1435546875,-10.498046875,10.19287109375,21.1181640625,-340.29376756725753,-352.28826076980437,-286.34528905608164,1745594647.2707112
604,1,1,10,317,15,0.517578125,1.23828125,-0.29052734375,-1.77001953125,19.8974609375,17.27294921875,-326.82190386049444,-349.2945132794126,-278.8230567446419,1745594647.370447
605,1,1,10,332,15,0.25537109375,1.18115234375,-0.12353515625,6.8359375,14.22119140625,12.87841796875,-334.3062725864739,-377.7351144381346,-271.3008244332022,1745594647.382807
606,1,1,10,347,15,-0.01416015625,1.05615234375,0.06982421875,15.93017578125,-4.2724609375,3.35693359375,-322.3312826249068,-373.2444932025469,-262.27414565947447,1745594647.390454
607,1,1,10,362,15,-0.15087890625,0.990234375,0.07275390625,13.85498046875,0.3662109375,-0.48828125,-323.82815637010265,-374.7413669477428,-284.84084259379364,1745594647.3970323
608,1,1,10,377,15,-0.16064453125,0.9794921875,-0.03857421875,10.986328125,-5.0048828125,5.7373046875,-313.3500401537314,-364.2632507313715,-254.75191334803475,1745594647.403526
609,1,1,10,392,15,-0.03125,0.96923828125,-0.166015625,10.19287109375,-15.380859375,9.8876953125,-314.8469138989273,-365.7601244765674,-272.8052708954901,1745594647.410792
610,1,1,10,407,15,-0.1279296875,1.02001953125,-0.13671875,10.8642578125,-21.42333984375,10.55908203125,-322.3312826249068,-368.75387196695925,-272.8052708954901,1745594647.4173398
611,1,1,10,422,15,-0.1240234375,0.9921875,-0.03759765625,10.43701171875,-21.240234375,11.04736328125,-307.3625451729478,-368.75387196695925,-272.8052708954901,1745594647.4238348
612,1,1,10,437,15,-0.08349609375,1.02685546875,-0.03466796875,9.8876953125,-14.95361328125,11.65771484375,-313.3500401537314,-371.747619457351,-265.28303858405036,1745594647.438363
613,1,1,10,452,15,0.06201171875,1.041015625,-0.11474609375,9.27734375,-8.11767578125,11.53564453125,-310.3562926633397,-364.2632507313715,-268.29193150862625,1745594647.6061132
614,1,1,10,467,15,-0.14306640625,1.01611328125,-0.091796875,7.6904296875,-1.46484375,12.75634765625,-311.85316640853557,-362.7663769861756,-272.8052708954901,1745594647.7397356
615,1,1,10,482,15,-0.080078125,1.017578125,-0.0869140625,3.47900390625,0.67138671875,13.427734375,-295.3875552113807,-353.78513451500027,-278.8230567446419,1745594647.7464466
616,1,1,10,497,15,-0.06201171875,1.05712890625,-0.080078125,3.90625,-0.54931640625,13.916015625,-314.8469138989273,-352.28826076980437,-269.79637797091425,1745594647.754082
617,1,1,10,512,15,-0.08837890625,1.0478515625,-0.0859375,4.2724609375,-2.197265625,12.6953125,-304.368797682556,-358.27575575058796,-280.32750320692986,1745594647.7608194
618,1,1,10,527,15,0.041015625,0.94091796875,-0.01904296875,5.37109375,-5.43212890625,12.3291015625,-302.8719239373602,-371.747619457351,-278.8230567446419,1745594647.7679026
619,1,1,10,542,15,-0.0048828125,1.0185546875,-0.0576171875,5.31005859375,-5.4931640625,9.8876953125,-284.90943899500945,-361.2695032409797,-295.3719678298093,1745594647.775179
620,1,1,10,557,15,0.03125,1.0205078125,-0.05078125,5.18798828125,-5.9814453125,7.62939453125,-292.39380772098895,-377.7351144381346,-289.35418198065753,1745594647.7816825
621,1,1,10,572,15,-0.01171875,0.98486328125,-0.080078125,6.103515625,-8.1787109375,2.86865234375,-277.42507026902996,-364.2632507313715,-274.309717357778,1745594647.7896535
622,1,1,10,587,15,-0.00830078125,1.1025390625,-0.005859375,7.4462890625,-11.16943359375,-2.685546875,-290.89693397579305,-373.2444932025469,-301.38975367896103,1745594647.7969499
623,1,1,10,602,15,0.07080078125,1.02880859375,-0.0791015625,7.32421875,-10.55908203125,-7.01904296875,-292.39380772098895,-374.7413669477428,-289.35418198065753,1745594647.8034444
624,1,1,10,617,15,-0.04248046875,1.01708984375,-0.138671875,6.34765625,-9.33837890625,-10.80322265625,-292.39380772098895,-364.2632507313715,-292.36307490523336,1745594647.8099914
625,1,1,10,632,15,-0.06884765625,1.00439453125,-0.1689453125,0.3662109375,-8.056640625,-11.29150390625,-307.3625451729478,-362.7663769861756,-296.87641429209725,1745594647.8172057
626,1,1,10,647,15,-0.068359375,0.99560546875,-0.1171875,-4.21142578125,-8.544921875,-10.25390625,-292.39380772098895,-374.7413669477428,-298.3808607543852,1745594647.8411279
627,1,1,10,662,15,-0.05712890625,0.99951171875,-0.10791015625,-6.34765625,-9.09423828125,-9.765625,-304.368797682556,-362.7663769861756,-301.38975367896103,1745594647.8477216
628,1,1,10,677,15,-0.0400390625,1.001953125,-0.10498046875,-7.62939453125,-8.36181640625,-10.3759765625,-301.3750501921643,-376.2382406929387,-311.9208789149767,1745594647.8542233
629,1,1,10,692,15,-0.0537109375,1.0166015625,-0.11328125,-9.82666015625,-8.48388671875,-10.25390625,-302.8719239373602,-349.2945132794126,-298.3808607543852,1745594647.860877
630,1,1,10,707,15,-0.05810546875,1.02294921875,-0.0986328125,-12.26806640625,-8.72802734375,-11.90185546875,-332.809398841278,-355.28200826019616,-320.94755768870436,1745594647.8674521
631,1,1,10,722,15,-0.04541015625,1.0185546875,-0.0830078125,-14.16015625,-10.498046875,-14.6484375,-322.3312826249068,-362.7663769861756,-314.9297718395526,1745594647.873936
632,1,1,10,737,15,-0.033203125,1.01806640625,-0.0595703125,-15.93017578125,-10.8642578125,-18.310546875,-326.82190386049444,-371.747619457351,-313.42532537726464,1745594647.880839
633,1,1,10,752,15,-0.02392578125,1.0361328125,-0.06298828125,-15.7470703125,-14.09912109375,-21.91162109375,-316.3437876441232,-367.2569982217633,-316.43421830184053,1745594647.888075
634,1,1,10,767,15,-0.044921875,1.05322265625,-0.0302734375,-14.2822265625,-14.83154296875,-26.2451171875,-313.3500401537314,-356.77888200539206,-302.89420014124903,1745594648.1048295
635,1,1,10,782,15,-0.06298828125,1.017578125,0.0078125,-11.90185546875,-15.13671875,-29.96826171875,-322.3312826249068,-358.27575575058796,-307.40753952811286,1745594648.1220465
636,1,1,10,797,15,0.00244140625,1.060546875,-0.05029296875,-13.18359375,-13.85498046875,-36.62109375,-331.31252509608214,-356.77888200539206,-308.9119859904008,1745594648.1472392
637,1,1,10,812,15,0.0869140625,1.09375,-0.00439453125,-12.63427734375,-11.5966796875,-47.91259765625,-343.2875150576493,-352.28826076980437,-314.9297718395526,1745594648.1537461
638,1,1,10,827,15,0.11376953125,1.0888671875,0.00244140625,-11.474609375,-12.939453125,-62.6220703125,-325.32503011529855,-347.7976395342167,-320.94755768870436,1745594648.1602497
639,1,1,10,842,15,0.1318359375,1.150390625,-0.02001953125,-9.09423828125,-13.7939453125,-75.5615234375,-335.80314633166984,-334.32577582745364,-314.9297718395526,1745594648.166865
640,1,1,10,857,15,0.16552734375,1.1884765625,-0.0634765625,-4.82177734375,-11.474609375,-87.0361328125,-341.7906413124534,-331.3320283370619,-316.43421830184053,1745594648.1842735
641,1,1,10,872,15,0.17041015625,1.404296875,0.03662109375,-2.99072265625,-13.0615234375,-96.3134765625,-361.24999999999994,-322.3507858658865,-320.94755768870436,1745594648.1922863
642,1,1,10,887,15,0.3369140625,1.39599609375,-0.05224609375,10.3759765625,15.625,-95.64208984375,-356.7593787644123,-316.36329088510297,-314.9297718395526,1745594648.1988318
643,1,1,10,902,15,0.05224609375,1.3740234375,0.09912109375,10.3759765625,24.7802734375,-103.759765625,-350.77188378362877,-322.3507858658865,-325.4608970755682,1745594648.2060905
644,1,1,10,917,15,0.1669921875,1.48193359375,0.02587890625,1.953125,32.77587890625,-130.2490234375,-380.70935868754657,-317.86016463029887,-319.4431112264165,1745594648.2125838
645,1,1,10,932,15,0.11376953125,1.42626953125,-0.08984375,-7.8125,51.08642578125,-140.9912109375,-353.7656312740205,-301.394553433144,-317.93866476412853,1745594648.219085
646,1,1,10,947,15,0.3203125,1.14453125,-0.3515625,11.23046875,67.56591796875,-125.8544921875,-368.7343687259795,-298.40080594275224,-320.94755768870436,1745594648.2316084
647,1,1,10,962,15,1.3935546875,0.583984375,0.02880859375,20.8740234375,76.35498046875,-63.41552734375,-356.7593787644123,-304.3883009235358,-307.40753952811286,1745594648.2439015
648,1,1,10,977,15,1.51025390625,0.0791015625,0.09814453125,11.16943359375,101.74560546875,-0.3662109375,-368.7343687259795,-298.40080594275224,-304.398646603537,1745594648.2504876
649,1,1,10,992,15,1.3447265625,0.015625,0.21630859375,-3.2958984375,101.07421875,74.0966796875,-359.7531262548041,-310.3757959043194,-298.3808607543852,1745594648.256986
650,1,1,11,7,15,1.328125,0.3203125,0.2841796875,-30.57861328125,57.55615234375,149.23095703125,-373.22498996156713,-313.36954339471123,-278.8230567446419,1745594648.263447
651,1,1,11,22,15,1.1591796875,0.8447265625,0.21923828125,-52.06298828125,47.119140625,214.41650390625,-349.27501003843287,-331.3320283370619,-278.8230567446419,1745594648.2700572
652,1,1,11,37,15,-0.4072265625,2.4306640625,-1.046875,-54.50439453125,118.65234375,328.4912109375,-320.8344088797109,-364.2632507313715,-257.76080627261064,1745594648.276675
653,1,1,11,52,15,-0.95263671875,1.849609375,0.18505859375,-68.2373046875,4.94384765625,243.22509765625,-316.3437876441232,-364.2632507313715,-260.7696991971865,1745594648.2832813
654,1,1,11,67,15,-7.56787109375,1.8623046875,-0.849609375,-43.701171875,35.888671875,108.88671875,-287.90318648540125,-395.69759938048526,-244.22078811201914,1745594648.289939
655,1,1,11,82,15,-1.77685546875,0.2109375,0.5517578125,-43.02978515625,-49.49951171875,-230.5908203125,-268.4438277978546,-398.6913468708771,-242.7163416497312,1745594648.2968166
656,1,1,11,97,15,-1.1796875,0.13427734375,-0.9765625,87.95166015625,-155.45654296875,28.38134765625,-292.39380772098895,-374.7413669477428,-239.7074487251553,1745594648.303279
657,1,1,11,112,15,0.53466796875,0.453125,0.13623046875,-4.2724609375,-56.57958984375,-26.611328125,-272.9344490334423,-365.7601244765674,-238.20300226286733,1745594648.3098655
658,1,1,11,127,15,-0.630859375,0.6796875,0.42822265625,-5.79833984375,-25.5126953125,20.56884765625,-293.8906814661848,-380.7288619285263,-248.73412749888297,1745594648.3163793
659,1,1,11,142,15,-0.79931640625,0.865234375,0.19873046875,-2.685546875,-63.8427734375,28.076171875,-304.368797682556,-365.7601244765674,-256.2563598103227,1745594648.3605993
660,1,1,11,157,15,-0.20654296875,0.92919921875,0.31201171875,-4.08935546875,-25.7568359375,29.23583984375,-290.89693397579305,-355.28200826019616,-266.7874850463383,1745594648.3679357
661,1,1,11,172,15,-0.06005859375,0.982421875,0.0146484375,-4.0283203125,-4.82177734375,30.45654296875,-295.3875552113807,-364.2632507313715,-254.75191334803475,1745594649.3410308
662,1,1,11,187,15,0.28515625,1.162109375,-0.25439453125,-10.986328125,16.4794921875,27.099609375,-301.3750501921643,-373.2444932025469,-256.2563598103227,1745594649.5245836
663,1,1,11,202,15,0.17578125,1.21533203125,-0.34814453125,-6.591796875,31.43310546875,15.380859375,-293.8906814661848,-373.2444932025469,-266.7874850463383,1745594649.8484547
664,1,1,11,217,15,0.0986328125,1.16943359375,-0.11962890625,-2.25830078125,7.26318359375,11.90185546875,-296.8844289565766,-373.2444932025469,-262.27414565947447,1745594649.8549523
665,1,1,11,232,15,0.02734375,1.150390625,0.09765625,3.5400390625,-6.34765625,8.1787109375,-304.368797682556,-365.7601244765674,-256.2563598103227,1745594649.8638308
666,1,1,11,247,15,-0.048828125,1.029296875,0.064453125,6.04248046875,-7.2021484375,3.60107421875,-301.3750501921643,-365.7601244765674,-251.74302042345886,1745594649.8703773
667,1,1,11,262,15,-0.02294921875,0.97119140625,-0.05908203125,7.99560546875,-10.31494140625,2.9296875,-301.3750501921643,-383.7226094189181,-269.79637797091425,1745594649.876895
668,1,1,11,277,15,-0.0712890625,0.931640625,-0.0517578125,9.46044921875,-14.0380859375,2.13623046875,-301.3750501921643,-380.7288619285263,-256.2563598103227,1745594649.8842087
669,1,1,11,292,15,-0.02197265625,0.9814453125,-0.02587890625,10.498046875,-17.08984375,0.0,-286.40631274020535,-373.2444932025469,-259.2652527348986,1745594649.890783
670,1,1,11,307,15,-0.08251953125,0.9716796875,-0.09130859375,11.5966796875,-13.00048828125,1.03759765625,-293.8906814661848,-368.75387196695925,-262.27414565947447,1745594649.897316
671,1,1,11,322,15,-0.16357421875,0.99072265625,-0.1171875,10.07080078125,-8.23974609375,3.23486328125,-283.4125652498136,-362.7663769861756,-266.7874850463383,1745594649.9046693
672,1,1,11,337,15,-0.19677734375,0.93310546875,-0.03759765625,9.033203125,-7.38525390625,9.82666015625,-281.9156915046177,-371.747619457351,-254.75191334803475,1745594649.9126978
673,1,1,11,352,15,-0.17529296875,0.962890625,-0.01611328125,7.50732421875,-4.21142578125,13.00048828125,-296.8844289565766,-362.7663769861756,-266.7874850463383,1745594649.9192572
674,1,1,11,367,15,-0.08349609375,0.94580078125,-0.126953125,5.4931640625,-0.91552734375,16.357421875,-278.92194401422586,-362.7663769861756,-269.79637797091425,1745594649.92664
675,1,1,11,382,15,-0.00048828125,1.00390625,-0.11279296875,2.86865234375,-4.2724609375,15.07568359375,-277.42507026902996,-374.7413669477428,-257.76080627261064,1745594649.9331465
676,1,1,11,397,15,0.001953125,1.03466796875,-0.06787109375,3.662109375,-4.2724609375,13.671875,-266.9469540526587,-361.2695032409797,-254.75191334803475,1745594649.939681
677,1,1,11,412,15,-0.0498046875,1.07080078125,-0.01171875,5.67626953125,-4.150390625,7.8125,-269.9407015430505,-377.7351144381346,-265.28303858405036,1745594649.9470313
678,1,1,11,427,15,0.0244140625,0.98583984375,-0.07177734375,7.01904296875,-0.91552734375,6.103515625,-277.42507026902996,-364.2632507313715,-260.7696991971865,1745594649.9535475
679,1,1,11,442,15,0.0703125,1.06640625,-0.0869140625,6.2255859375,-3.60107421875,0.79345703125,-265.4500803074629,-383.7226094189181,-277.318610282354,1745594649.9615426
