Processed,Time(h),Time(m),Time(s),Time(ms),Delt,AccX,AccY,AccZ,GyroX,GyroY,GyroZ,MagX,MagY,MagZ,PCTimestamp
1,1,1,1,272,3661272,0.12060546875,1.005859375,-0.099609375,-0.79345703125,0.1220703125,-0.06103515625,-286.40631274020535,101.26448402455115,-141.9184286764388,1741601206.4260652
2,1,1,1,287,15,0.1171875,1.001953125,-0.10986328125,-0.79345703125,0.0,0.0,-286.40631274020535,119.22696896690185,-134.39619636499907,1741601206.4599304
3,1,1,1,302,15,0.1044921875,1.001953125,-0.09716796875,-0.8544921875,0.0,-0.1220703125,-290.89693397579305,108.7488527505306,-131.38730344042315,1741601206.471828
4,1,1,1,317,15,0.1162109375,0.99365234375,-0.0966796875,-0.9765625,-0.244140625,-0.06103515625,-287.90318648540125,110.2457264957265,-137.40508928957496,1741601206.4784412
5,1,1,1,332,15,0.12109375,1.00390625,-0.10400390625,-1.03759765625,-0.244140625,0.0,-277.42507026902996,110.2457264957265,-129.8828569781352,1741601206.4858098
6,1,1,1,347,15,0.119140625,0.99462890625,-0.095703125,-0.9765625,-0.18310546875,-0.06103515625,-295.3875552113807,113.23947398611827,-132.89174990271113,1741601206.492859
7,1,1,1,362,15,0.126953125,0.99609375,-0.1025390625,-0.8544921875,-0.1220703125,0.0,-296.8844289565766,108.7488527505306,-128.37841051584726,1741601206.4992285
8,1,1,1,377,15,0.1123046875,1.009765625,-0.08935546875,-0.91552734375,0.0,0.0,-310.3562926633397,117.73009522170595,-137.40508928957496,1741601206.505645
9,1,1,1,392,15,0.1171875,0.9921875,-0.10693359375,-0.8544921875,0.06103515625,0.0,-286.40631274020535,108.7488527505306,-134.39619636499907,1741601206.5120287
10,1,1,1,407,15,0.11376953125,1.00390625,-0.09912109375,-0.9765625,-0.06103515625,-0.18310546875,-293.8906814661848,104.25823151494292,-114.83839235525575,1741601206.747627
11,1,1,1,422,15,0.1171875,1.00146484375,-0.08837890625,-0.91552734375,-0.18310546875,-0.244140625,-301.3750501921643,104.25823151494292,-134.39619636499907,1741601206.7540321
12,1,1,1,437,15,0.12158203125,0.9921875,-0.091796875,-0.9765625,-0.244140625,0.0,-286.40631274020535,98.27073653415934,-134.39619636499907,1741601206.7605162
13,1,1,1,452,15,0.11767578125,0.99609375,-0.11474609375,-0.91552734375,0.0,-0.06103515625,-284.90943899500945,107.2519790053347,-122.36062466669549,1741601206.766887
14,1,1,1,467,15,0.109375,0.994140625,-0.10400390625,-0.91552734375,0.0,-0.06103515625,-277.42507026902996,107.2519790053347,-126.87396405355932,1741601206.7733142
15,1,1,1,482,15,0.12353515625,0.99658203125,-0.09619140625,-0.8544921875,-0.244140625,-0.18310546875,-283.4125652498136,104.25823151494292,-141.9184286764388,1741601206.7797012
16,1,1,1,497,15,0.1103515625,0.998046875,-0.099609375,-0.9765625,-0.30517578125,0.06103515625,-293.8906814661848,104.25823151494292,-117.84728527983165,1741601206.7860668
17,1,1,1,512,15,0.10986328125,1.00341796875,-0.0986328125,-0.79345703125,-0.30517578125,-0.244140625,-293.8906814661848,101.26448402455115,-128.37841051584726,1741601206.792459
18,1,1,1,527,15,0.12255859375,0.99169921875,-0.0927734375,-0.8544921875,-0.06103515625,0.0,-281.9156915046177,110.2457264957265,-132.89174990271113,1741601206.798801
19,1,1,1,542,15,0.1083984375,0.99853515625,-0.095703125,-0.732421875,-0.244140625,0.0,-302.8719239373602,99.76761027935525,-116.34283881754371,1741601206.8051913
20,1,1,1,557,15,0.11279296875,0.99462890625,-0.099609375,-0.79345703125,-0.1220703125,-0.06103515625,-283.4125652498136,116.23322147651005,-138.9095357518629,1741601206.8115692
21,1,1,1,572,15,0.1171875,0.9990234375,-0.08642578125,-0.79345703125,-0.06103515625,-0.06103515625,-286.40631274020535,111.74260024092237,-138.9095357518629,1741601206.8239036
22,1,1,1,587,15,0.12109375,1.0,-0.0927734375,-0.79345703125,0.0,-0.06103515625,-296.8844289565766,108.7488527505306,-138.9095357518629,1741601207.0760527
23,1,1,1,602,15,0.1171875,1.00390625,-0.09716796875,-0.732421875,-0.18310546875,-0.244140625,-304.368797682556,108.7488527505306,-128.37841051584726,1741601207.158575
24,1,1,1,617,15,0.11376953125,0.9892578125,-0.10107421875,-0.91552734375,-0.48828125,0.0,-301.3750501921643,119.22696896690185,-131.38730344042315,1741601207.1650157
25,1,1,1,632,15,0.119140625,0.99560546875,-0.08740234375,-0.8544921875,-0.3662109375,0.0,-293.8906814661848,119.22696896690185,-123.86507112898344,1741601207.171389
26,1,1,1,647,15,0.111328125,0.99365234375,-0.091796875,-0.79345703125,-0.244140625,0.0,-296.8844289565766,98.27073653415934,-120.85617820440754,1741601207.177739
27,1,1,1,662,15,0.11181640625,0.99365234375,-0.09326171875,-0.79345703125,-0.1220703125,0.0,-304.368797682556,111.74260024092237,-128.37841051584726,1741601207.1841495
28,1,1,1,677,15,0.123046875,0.99755859375,-0.09326171875,-0.79345703125,-0.06103515625,0.0,-298.3813027017725,110.2457264957265,-132.89174990271113,1741601207.1905346
29,1,1,1,692,15,0.11083984375,0.99853515625,-0.09130859375,-0.79345703125,-0.18310546875,0.0,-295.3875552113807,113.23947398611827,-137.40508928957496,1741601207.196975
30,1,1,1,707,15,0.119140625,1.0029296875,-0.09814453125,-0.8544921875,-0.48828125,-0.06103515625,-298.3813027017725,99.76761027935525,-126.87396405355932,1741601207.2198899
31,1,1,1,722,15,0.11767578125,0.99951171875,-0.10498046875,-0.6103515625,-0.48828125,0.0,-311.85316640853557,122.22071645729363,-134.39619636499907,1741601207.2262812
32,1,1,1,737,15,0.12548828125,1.0048828125,-0.08447265625,-0.8544921875,-0.3662109375,-0.06103515625,-287.90318648540125,95.27698904376757,-126.87396405355932,1741601207.232691
33,1,1,1,752,15,0.125,0.99853515625,-0.09326171875,-0.8544921875,-0.3662109375,-0.244140625,-290.89693397579305,122.22071645729363,-134.39619636499907,1741601207.2390573
34,1,1,1,767,15,0.1201171875,1.0029296875,-0.0888671875,-0.79345703125,-0.30517578125,-0.1220703125,-296.8844289565766,104.25823151494292,-128.37841051584726,1741601207.245463
35,1,1,1,782,15,0.1171875,0.9931640625,-0.07763671875,-0.79345703125,-0.18310546875,-0.1220703125,-286.40631274020535,119.22696896690185,-123.86507112898344,1741601207.2519505
36,1,1,1,797,15,0.1142578125,1.00390625,-0.0927734375,-0.732421875,-0.244140625,0.0,-301.3750501921643,119.22696896690185,-131.38730344042315,1741601207.2690787
37,1,1,1,812,15,0.11572265625,0.9951171875,-0.08544921875,-0.91552734375,-0.3662109375,-0.244140625,-298.3813027017725,113.23947398611827,-132.89174990271113,1741601207.275538
38,1,1,1,827,15,0.11865234375,1.00732421875,-0.08984375,-0.732421875,-0.42724609375,-0.1220703125,-284.90943899500945,99.76761027935525,-129.8828569781352,1741601207.2819483
39,1,1,1,842,15,0.11328125,1.00830078125,-0.0947265625,-0.67138671875,-0.18310546875,-0.1220703125,-281.9156915046177,102.76135776974702,-119.35173174211958,1741601207.2883105
40,1,1,1,857,15,0.11865234375,1.00634765625,-0.08447265625,-0.732421875,-0.18310546875,-0.06103515625,-284.90943899500945,125.21446394768543,-132.89174990271113,1741601207.294706
41,1,1,1,872,15,0.1220703125,1.0068359375,-0.0947265625,-0.79345703125,-0.1220703125,-0.1220703125,-301.3750501921643,111.74260024092237,-134.39619636499907,1741601207.3012915
42,1,1,1,887,15,0.12158203125,1.0,-0.08837890625,-0.91552734375,-0.244140625,-0.06103515625,-290.89693397579305,111.74260024092237,-120.85617820440754,1741601207.3076665
43,1,1,1,902,15,0.1025390625,0.99853515625,-0.08642578125,-0.67138671875,-0.30517578125,-0.06103515625,-287.90318648540125,107.2519790053347,-116.34283881754371,1741601207.3140724
44,1,1,1,917,15,0.11279296875,0.9990234375,-0.080078125,-0.79345703125,-0.1220703125,-0.06103515625,-290.89693397579305,108.7488527505306,-131.38730344042315,1741601207.3210294
45,1,1,1,932,15,0.11767578125,1.00048828125,-0.0908203125,-0.42724609375,-0.06103515625,0.0,-292.39380772098895,113.23947398611827,-137.40508928957496,1741601207.3274167
46,1,1,1,947,15,0.1220703125,1.00244140625,-0.091796875,-0.54931640625,0.0,0.0,-293.8906814661848,111.74260024092237,-120.85617820440754,1741601207.333831
47,1,1,1,962,15,0.11767578125,1.00048828125,-0.09228515625,-0.54931640625,0.1220703125,-0.1220703125,-290.89693397579305,104.25823151494292,-128.37841051584726,1741601207.3402433
48,1,1,1,977,15,0.11181640625,0.99951171875,-0.0859375,-0.54931640625,0.0,0.0,-296.8844289565766,122.22071645729363,-120.85617820440754,1741601207.3465998
49,1,1,1,992,15,0.11279296875,0.9990234375,-0.08251953125,-0.732421875,-0.3662109375,0.18310546875,-301.3750501921643,104.25823151494292,-128.37841051584726,1741601207.398944
50,1,1,2,7,15,0.11572265625,0.99755859375,-0.09033203125,-0.67138671875,-0.244140625,0.1220703125,-278.92194401422586,108.7488527505306,-117.84728527983165,1741601207.4053822
51,1,1,2,22,15,0.1123046875,1.00048828125,-0.0927734375,-0.42724609375,-0.3662109375,0.0,-287.90318648540125,110.2457264957265,-122.36062466669549,1741601207.411778
52,1,1,2,37,15,0.11181640625,1.0068359375,-0.09814453125,-0.48828125,-0.06103515625,0.30517578125,-295.3875552113807,113.23947398611827,-129.8828569781352,1741601207.4185612
53,1,1,2,52,15,0.115234375,0.9931640625,-0.08837890625,-0.48828125,-0.18310546875,0.18310546875,-292.39380772098895,95.27698904376757,-126.87396405355932,1741601207.4249718
54,1,1,2,67,15,0.1240234375,0.9970703125,-0.08154296875,-0.54931640625,0.0,0.18310546875,-293.8906814661848,111.74260024092237,-141.9184286764388,1741601207.4313753
55,1,1,2,82,15,0.11669921875,0.9921875,-0.0927734375,-0.54931640625,-0.06103515625,0.1220703125,-292.39380772098895,125.21446394768543,-132.89174990271113,1741601207.4377515
56,1,1,2,97,15,0.1220703125,0.99072265625,-0.0791015625,-0.48828125,-0.1220703125,0.06103515625,-304.368797682556,116.23322147651005,-123.86507112898344,1741601207.4441657
57,1,1,2,112,15,0.11767578125,0.9951171875,-0.091796875,-0.18310546875,-0.18310546875,0.18310546875,-301.3750501921643,126.7113376928813,-117.84728527983165,1741601207.4660084
58,1,1,2,127,15,0.11181640625,1.00537109375,-0.07568359375,-0.42724609375,-0.18310546875,0.244140625,-286.40631274020535,101.26448402455115,-120.85617820440754,1741601207.4724362
59,1,1,2,142,15,0.12109375,1.0029296875,-0.1005859375,-0.42724609375,-0.48828125,0.30517578125,-292.39380772098895,110.2457264957265,-126.87396405355932,1741601207.4788096
60,1,1,2,157,15,0.1201171875,1.0068359375,-0.0927734375,-0.30517578125,-0.30517578125,0.0,-277.42507026902996,99.76761027935525,-119.35173174211958,1741601207.4852047
61,1,1,2,172,15,0.111328125,0.99755859375,-0.10205078125,-0.244140625,-0.244140625,0.30517578125,-281.9156915046177,120.72384271209773,-122.36062466669549,1741601207.4969313
62,1,1,2,187,15,0.12158203125,0.99609375,-0.0859375,-0.3662109375,-0.42724609375,0.244140625,-287.90318648540125,95.27698904376757,-122.36062466669549,1741601207.5033393
63,1,1,2,202,15,0.11376953125,0.99658203125,-0.08251953125,-0.3662109375,-0.244140625,0.244140625,-281.9156915046177,107.2519790053347,-126.87396405355932,1741601207.5097468
64,1,1,2,217,15,0.1103515625,0.9990234375,-0.0986328125,-0.244140625,-0.18310546875,0.18310546875,-292.39380772098895,113.23947398611827,-129.8828569781352,1741601207.5161119
65,1,1,2,232,15,0.11962890625,1.001953125,-0.08251953125,-0.18310546875,-0.06103515625,0.06103515625,-301.3750501921643,119.22696896690185,-134.39619636499907,1741601207.5229445
66,1,1,2,247,15,0.12451171875,1.00830078125,-0.09130859375,-0.1220703125,-0.06103515625,0.244140625,-286.40631274020535,108.7488527505306,-134.39619636499907,1741601207.8027663
67,1,1,2,262,15,0.1171875,1.0068359375,-0.0869140625,-0.18310546875,0.1220703125,0.0,-301.3750501921643,104.25823151494292,-131.38730344042315,1741601207.8091774
68,1,1,2,277,15,0.12451171875,0.99951171875,-0.0791015625,0.0,0.06103515625,0.1220703125,-281.9156915046177,113.23947398611827,-116.34283881754371,1741601207.8156097
69,1,1,2,292,15,0.11669921875,1.0009765625,-0.10009765625,-0.06103515625,-0.1220703125,0.0,-286.40631274020535,93.78011529857167,-128.37841051584726,1741601207.8223276
70,1,1,2,307,15,0.12451171875,0.998046875,-0.080078125,0.0,0.06103515625,0.1220703125,-277.42507026902996,113.23947398611827,-137.40508928957496,1741601207.8287256
71,1,1,2,322,15,0.1259765625,1.00146484375,-0.07763671875,0.0,0.0,0.06103515625,-287.90318648540125,110.2457264957265,-122.36062466669549,1741601207.835133
72,1,1,2,337,15,0.1142578125,1.0029296875,-0.09619140625,0.0,0.30517578125,0.1220703125,-290.89693397579305,116.23322147651005,-134.39619636499907,1741601207.918841
73,1,1,2,352,15,0.11767578125,0.9951171875,-0.08837890625,0.0,0.18310546875,0.0,-295.3875552113807,120.72384271209773,-129.8828569781352,1741601207.925303
74,1,1,2,367,15,0.1142578125,1.0,-0.10400390625,-0.1220703125,-0.06103515625,0.30517578125,-302.8719239373602,99.76761027935525,-119.35173174211958,1741601207.9317067
75,1,1,2,382,15,0.1083984375,0.99853515625,-0.08837890625,-0.06103515625,-0.18310546875,0.244140625,-295.3875552113807,95.27698904376757,-132.89174990271113,1741601207.9381032
76,1,1,2,397,15,0.11767578125,1.00732421875,-0.09228515625,0.1220703125,0.244140625,0.18310546875,-278.92194401422586,98.27073653415934,-131.38730344042315,1741601207.9445126
77,1,1,2,412,15,0.1162109375,0.99853515625,-0.07177734375,-0.06103515625,-0.06103515625,0.0,-296.8844289565766,101.26448402455115,-120.85617820440754,1741601207.9509082
78,1,1,2,427,15,0.111328125,1.0029296875,-0.09130859375,0.06103515625,0.06103515625,0.18310546875,-290.89693397579305,98.27073653415934,-120.85617820440754,1741601207.9572897
79,1,1,2,442,15,0.12451171875,1.00048828125,-0.0810546875,0.0,0.3662109375,0.0,-295.3875552113807,107.2519790053347,-126.87396405355932,1741601207.9637017
80,1,1,2,457,15,0.11865234375,0.99609375,-0.099609375,0.1220703125,0.30517578125,0.18310546875,-307.3625451729478,111.74260024092237,-120.85617820440754,1741601207.9703
81,1,1,2,472,15,0.1220703125,1.0029296875,-0.07763671875,0.0,0.30517578125,0.06103515625,-283.4125652498136,119.22696896690185,-123.86507112898344,1741601207.9767118
82,1,1,2,487,15,0.1279296875,1.0048828125,-0.0947265625,0.0,0.18310546875,-0.06103515625,-295.3875552113807,95.27698904376757,-126.87396405355932,1741601207.9831295
83,1,1,2,502,15,0.123046875,1.00830078125,-0.08544921875,0.06103515625,0.06103515625,0.06103515625,-298.3813027017725,113.23947398611827,-137.40508928957496,1741601207.9895403
84,1,1,2,517,15,0.11767578125,0.9970703125,-0.07666015625,0.1220703125,0.3662109375,0.0,-295.3875552113807,107.2519790053347,-122.36062466669549,1741601207.99591
85,1,1,2,532,15,0.11376953125,1.00341796875,-0.0830078125,0.18310546875,0.48828125,0.0,-292.39380772098895,117.73009522170595,-119.35173174211958,1741601208.002301
86,1,1,2,547,15,0.11572265625,1.001953125,-0.09033203125,0.244140625,0.42724609375,0.0,-287.90318648540125,102.76135776974702,-126.87396405355932,1741601208.0086849
87,1,1,2,562,15,0.10986328125,1.00439453125,-0.07958984375,0.0,0.0,0.06103515625,-281.9156915046177,110.2457264957265,-132.89174990271113,1741601208.0151029
88,1,1,2,577,15,0.11669921875,1.00341796875,-0.0927734375,-0.1220703125,0.0,0.06103515625,-287.90318648540125,110.2457264957265,-116.34283881754371,1741601208.0566587
89,1,1,2,592,15,0.1171875,0.99462890625,-0.1015625,-0.244140625,0.0,0.1220703125,-286.40631274020535,122.22071645729363,-131.38730344042315,1741601208.0631087
90,1,1,2,607,15,0.1171875,1.0009765625,-0.09228515625,-0.1220703125,0.06103515625,0.244140625,-295.3875552113807,99.76761027935525,-132.89174990271113,1741601208.0695264
91,1,1,2,622,15,0.1123046875,0.99267578125,-0.09033203125,-0.18310546875,0.06103515625,0.18310546875,-295.3875552113807,113.23947398611827,-122.36062466669549,1741601208.0760415
92,1,1,2,637,15,0.11572265625,0.99609375,-0.08544921875,0.0,0.06103515625,0.1220703125,-286.40631274020535,101.26448402455115,-128.37841051584726,1741601208.0824807
93,1,1,2,652,15,0.115234375,0.99609375,-0.10107421875,-0.06103515625,0.0,0.18310546875,-284.90943899500945,113.23947398611827,-132.89174990271113,1741601208.088856
94,1,1,2,667,15,0.11865234375,1.00341796875,-0.07861328125,-0.06103515625,0.244140625,-0.1220703125,-296.8844289565766,98.27073653415934,-117.84728527983165,1741601208.095273
95,1,1,2,682,15,0.12060546875,1.0009765625,-0.076171875,0.0,0.244140625,0.0,-304.368797682556,111.74260024092237,-123.86507112898344,1741601208.1016846
96,1,1,2,697,15,0.1259765625,1.00146484375,-0.0908203125,0.18310546875,0.06103515625,-0.1220703125,-292.39380772098895,110.2457264957265,-132.89174990271113,1741601208.1080694
97,1,1,2,712,15,0.115234375,1.0,-0.0927734375,0.1220703125,0.0,0.0,-284.90943899500945,102.76135776974702,-119.35173174211958,1741601208.1144755
98,1,1,2,727,15,0.119140625,0.99658203125,-0.0869140625,0.1220703125,-0.06103515625,0.0,-286.40631274020535,108.7488527505306,-123.86507112898344,1741601208.1370401
99,1,1,2,742,15,0.12158203125,1.001953125,-0.10302734375,0.18310546875,-0.06103515625,-0.244140625,-292.39380772098895,107.2519790053347,-129.8828569781352,1741601208.1434855
100,1,1,2,757,15,0.11962890625,0.99853515625,-0.0927734375,0.18310546875,0.0,-0.18310546875,-292.39380772098895,110.2457264957265,-129.8828569781352,1741601208.1498923
101,1,1,2,772,15,0.11767578125,0.99365234375,-0.0810546875,0.18310546875,0.18310546875,-0.3662109375,-286.40631274020535,104.25823151494292,-123.86507112898344,1741601208.1562648
102,1,1,2,787,15,0.1240234375,0.9921875,-0.09326171875,0.18310546875,0.244140625,-0.42724609375,-296.8844289565766,104.25823151494292,-131.38730344042315,1741601208.1678498
103,1,1,2,802,15,0.111328125,1.001953125,-0.083984375,0.06103515625,0.3662109375,-0.18310546875,-292.39380772098895,110.2457264957265,-129.8828569781352,1741601208.1742735
104,1,1,2,817,15,0.12060546875,0.99853515625,-0.08642578125,0.244140625,0.30517578125,-0.244140625,-286.40631274020535,104.25823151494292,-141.9184286764388,1741601208.180674
105,1,1,2,832,15,0.11865234375,1.00341796875,-0.0927734375,0.18310546875,0.30517578125,-0.30517578125,-302.8719239373602,110.2457264957265,-126.87396405355932,1741601208.2259636
106,1,1,2,847,15,0.1162109375,1.0068359375,-0.10205078125,0.244140625,0.244140625,-0.244140625,-302.8719239373602,99.76761027935525,-129.8828569781352,1741601208.2388422
107,1,1,2,862,15,0.123046875,1.00048828125,-0.0849609375,0.06103515625,-0.06103515625,-0.244140625,-293.8906814661848,98.27073653415934,-123.86507112898344,1741601208.2591445
108,1,1,2,877,15,0.11865234375,0.9970703125,-0.0791015625,0.18310546875,0.18310546875,-0.48828125,-304.368797682556,126.7113376928813,-134.39619636499907,1741601208.265661
109,1,1,2,892,15,0.12353515625,1.00244140625,-0.0849609375,0.18310546875,0.06103515625,-0.30517578125,-295.3875552113807,95.27698904376757,-111.82949943067986,1741601208.2720857
110,1,1,2,907,15,0.11279296875,1.00146484375,-0.083984375,0.1220703125,0.30517578125,-0.3662109375,-287.90318648540125,113.23947398611827,-129.8828569781352,1741601208.2784455
111,1,1,2,922,15,0.1162109375,0.994140625,-0.0966796875,0.1220703125,0.06103515625,-0.244140625,-296.8844289565766,104.25823151494292,-134.39619636499907,1741601208.2848334
112,1,1,2,937,15,0.11181640625,1.0048828125,-0.07373046875,0.0,0.0,-0.1220703125,-296.8844289565766,116.23322147651005,-123.86507112898344,1741601208.2912405
113,1,1,2,952,15,0.1201171875,0.99267578125,-0.0927734375,0.3662109375,0.0,-0.3662109375,-286.40631274020535,108.7488527505306,-141.9184286764388,1741601208.2976067
114,1,1,2,967,15,0.11669921875,0.99755859375,-0.09716796875,0.06103515625,-0.244140625,-0.244140625,-278.92194401422586,104.25823151494292,-131.38730344042315,1741601208.3040645
115,1,1,2,982,15,0.12158203125,0.99853515625,-0.08544921875,0.06103515625,-0.30517578125,-0.1220703125,-292.39380772098895,107.2519790053347,-132.89174990271113,1741601208.3104937
116,1,1,2,997,15,0.1162109375,1.00244140625,-0.08203125,0.244140625,-0.1220703125,-0.18310546875,-298.3813027017725,107.2519790053347,-129.8828569781352,1741601208.317108
117,1,1,3,12,15,0.115234375,0.99951171875,-0.0849609375,0.1220703125,-0.06103515625,0.0,-295.3875552113807,125.21446394768543,-122.36062466669549,1741601208.3235526
118,1,1,3,27,15,0.1162109375,1.00537109375,-0.0751953125,0.30517578125,-0.06103515625,-0.18310546875,-284.90943899500945,99.76761027935525,-122.36062466669549,1741601208.329953
119,1,1,3,42,15,0.1201171875,1.0087890625,-0.08642578125,0.1220703125,-0.18310546875,-0.06103515625,-298.3813027017725,110.2457264957265,-140.41398221415082,1741601208.3363237
120,1,1,3,57,15,0.109375,1.00341796875,-0.08349609375,0.18310546875,-0.06103515625,0.06103515625,-284.90943899500945,113.23947398611827,-132.89174990271113,1741601208.3427305
121,1,1,3,72,15,0.11572265625,1.0029296875,-0.0888671875,0.0,-0.244140625,0.1220703125,-298.3813027017725,99.76761027935525,-140.41398221415082,1741601208.3491015
122,1,1,3,87,15,0.1201171875,0.998046875,-0.0966796875,0.18310546875,0.0,0.06103515625,-305.8656714277519,117.73009522170595,-129.8828569781352,1741601208.3554952
123,1,1,3,102,15,0.12548828125,1.0009765625,-0.09375,0.0,0.0,-0.1220703125,-292.39380772098895,110.2457264957265,-126.87396405355932,1741601208.361896
124,1,1,3,117,15,0.12255859375,1.00537109375,-0.08349609375,0.06103515625,0.1220703125,-0.06103515625,-292.39380772098895,107.2519790053347,-129.8828569781352,1741601208.734457
125,1,1,3,132,15,0.12255859375,0.998046875,-0.07275390625,0.1220703125,-0.06103515625,-0.06103515625,-298.3813027017725,107.2519790053347,-132.89174990271113,1741601209.0832417
126,1,1,3,147,15,0.115234375,1.00048828125,-0.09326171875,0.244140625,0.0,0.0,-293.8906814661848,104.25823151494292,-138.9095357518629,1741601209.089637
127,1,1,3,162,15,0.12060546875,1.00732421875,-0.08203125,0.06103515625,0.18310546875,0.0,-284.90943899500945,95.27698904376757,-122.36062466669549,1741601209.1001303
128,1,1,3,177,15,0.11669921875,1.00390625,-0.0888671875,0.06103515625,0.0,0.0,-292.39380772098895,117.73009522170595,-119.35173174211958,1741601209.106477
129,1,1,3,192,15,0.125,0.99951171875,-0.083984375,0.06103515625,-0.1220703125,0.0,-301.3750501921643,108.7488527505306,-120.85617820440754,1741601209.1128528
130,1,1,3,207,15,0.11474609375,0.9951171875,-0.083984375,0.06103515625,-0.3662109375,0.06103515625,-284.90943899500945,107.2519790053347,-129.8828569781352,1741601209.1248019
131,1,1,3,222,15,0.123046875,0.998046875,-0.08544921875,0.18310546875,-0.06103515625,0.06103515625,-290.89693397579305,108.7488527505306,-141.9184286764388,1741601209.13123
132,1,1,3,237,15,0.1171875,1.0029296875,-0.09228515625,0.18310546875,-0.06103515625,0.1220703125,-290.89693397579305,101.26448402455115,-123.86507112898344,1741601209.1376755
133,1,1,3,252,15,0.115234375,0.99560546875,-0.09375,0.18310546875,0.0,0.0,-305.8656714277519,113.23947398611827,-132.89174990271113,1741601209.1444778
134,1,1,3,267,15,0.11328125,0.9912109375,-0.08935546875,0.06103515625,-0.06103515625,0.244140625,-290.89693397579305,98.27073653415934,-131.38730344042315,1741601209.1665301
135,1,1,3,282,15,0.1171875,1.00390625,-0.09326171875,0.1220703125,-0.1220703125,0.0,-295.3875552113807,113.23947398611827,-129.8828569781352,1741601209.1730726
136,1,1,3,297,15,0.11474609375,0.9951171875,-0.07763671875,0.0,0.06103515625,-0.06103515625,-281.9156915046177,113.23947398611827,-126.87396405355932,1741601209.1795766
137,1,1,3,312,15,0.11279296875,1.001953125,-0.0947265625,0.0,-0.06103515625,0.0,-283.4125652498136,104.25823151494292,-114.83839235525575,1741601209.1859608
138,1,1,3,327,15,0.11572265625,1.0048828125,-0.0966796875,0.06103515625,-0.3662109375,0.0,-292.39380772098895,107.2519790053347,-119.35173174211958,1741601209.2219074
139,1,1,3,342,15,0.12353515625,1.005859375,-0.0908203125,0.0,-0.18310546875,0.06103515625,-290.89693397579305,108.7488527505306,-131.38730344042315,1741601209.2283206
140,1,1,3,357,15,0.119140625,0.99658203125,-0.08203125,-0.06103515625,-0.1220703125,0.06103515625,-298.3813027017725,99.76761027935525,-132.89174990271113,1741601209.2347524
141,1,1,3,372,15,0.11376953125,0.99462890625,-0.09033203125,0.1220703125,0.1220703125,0.06103515625,-283.4125652498136,111.74260024092237,-123.86507112898344,1741601209.242805
142,1,1,3,387,15,0.11181640625,1.00244140625,-0.083984375,0.06103515625,0.18310546875,0.0,-296.8844289565766,101.26448402455115,-141.9184286764388,1741601209.249202
143,1,1,3,402,15,0.11474609375,0.99609375,-0.09326171875,-0.06103515625,0.06103515625,0.0,-286.40631274020535,111.74260024092237,-117.84728527983165,1741601209.2556047
144,1,1,3,417,15,0.12060546875,0.9990234375,-0.08837890625,0.0,0.06103515625,-0.244140625,-298.3813027017725,107.2519790053347,-126.87396405355932,1741601209.262071
145,1,1,3,432,15,0.11376953125,1.0009765625,-0.0869140625,0.0,0.06103515625,-0.18310546875,-295.3875552113807,102.76135776974702,-126.87396405355932,1741601209.2686455
146,1,1,3,447,15,0.11669921875,1.00537109375,-0.0869140625,-0.06103515625,-0.244140625,-0.06103515625,-298.3813027017725,113.23947398611827,-116.34283881754371,1741601209.275066
147,1,1,3,462,15,0.1162109375,0.990234375,-0.08740234375,-0.18310546875,-0.1220703125,0.18310546875,-301.3750501921643,111.74260024092237,-123.86507112898344,1741601209.2951827
148,1,1,3,477,15,0.11767578125,0.9970703125,-0.10009765625,-0.06103515625,-0.1220703125,-0.1220703125,-296.8844289565766,111.74260024092237,-134.39619636499907,1741601209.3015995
149,1,1,3,492,15,0.115234375,1.001953125,-0.10107421875,0.0,-0.1220703125,0.0,-290.89693397579305,119.22696896690185,-141.9184286764388,1741601209.3079677
150,1,1,3,507,15,0.12060546875,0.9951171875,-0.09228515625,-0.06103515625,-0.18310546875,0.0,-269.9407015430505,110.2457264957265,-140.41398221415082,1741601209.3143847
151,1,1,3,522,15,0.11962890625,0.99658203125,-0.078125,-0.06103515625,0.1220703125,-0.06103515625,-301.3750501921643,111.74260024092237,-128.37841051584726,1741601209.321213
152,1,1,3,537,15,0.11474609375,0.990234375,-0.09814453125,-0.06103515625,0.06103515625,-0.30517578125,-292.39380772098895,99.76761027935525,-137.40508928957496,1741601209.3276017
153,1,1,3,552,15,0.11279296875,0.99462890625,-0.09716796875,-0.18310546875,0.1220703125,0.0,-295.3875552113807,110.2457264957265,-140.41398221415082,1741601209.3340018
154,1,1,3,567,15,0.11279296875,1.00390625,-0.080078125,-0.06103515625,0.0,0.1220703125,-290.89693397579305,104.25823151494292,-120.85617820440754,1741601209.3403957
155,1,1,3,582,15,0.11572265625,1.001953125,-0.09521484375,0.0,-0.1220703125,0.06103515625,-293.8906814661848,111.74260024092237,-123.86507112898344,1741601209.3467684
156,1,1,3,597,15,0.11962890625,1.0087890625,-0.095703125,0.0,0.06103515625,0.0,-292.39380772098895,113.23947398611827,-126.87396405355932,1741601209.3531606
157,1,1,3,612,15,0.125,1.00048828125,-0.09375,-0.1220703125,-0.1220703125,-0.06103515625,-293.8906814661848,98.27073653415934,-120.85617820440754,1741601209.3595634
158,1,1,3,627,15,0.12060546875,0.99755859375,-0.09130859375,-0.06103515625,0.18310546875,-0.1220703125,-284.90943899500945,95.27698904376757,-129.8828569781352,1741601209.3660758
159,1,1,3,642,15,0.1201171875,1.0009765625,-0.09619140625,-0.06103515625,0.0,0.0,-292.39380772098895,113.23947398611827,-143.42287513872674,1741601210.8756137
160,1,1,3,657,15,0.11669921875,1.0009765625,-0.08056640625,0.06103515625,0.1220703125,-0.1220703125,-277.42507026902996,107.2519790053347,-126.87396405355932,1741601210.8820736
161,1,1,3,672,15,0.1162109375,0.998046875,-0.0859375,0.0,0.06103515625,-0.244140625,-296.8844289565766,98.27073653415934,-123.86507112898344,1741601210.8884702
162,1,1,3,687,15,0.10888671875,1.00048828125,-0.08544921875,0.0,0.0,-0.06103515625,-283.4125652498136,98.27073653415934,-123.86507112898344,1741601210.894884
163,1,1,3,702,15,0.1162109375,1.00537109375,-0.07861328125,-0.1220703125,0.1220703125,0.0,-301.3750501921643,98.27073653415934,-123.86507112898344,1741601210.901312
164,1,1,3,717,15,0.11572265625,0.99169921875,-0.087890625,-0.06103515625,0.244140625,-0.06103515625,-290.89693397579305,108.7488527505306,-117.84728527983165,1741601210.9078813
165,1,1,3,732,15,0.11865234375,0.99951171875,-0.09521484375,0.0,0.18310546875,0.0,-296.8844289565766,126.7113376928813,-120.85617820440754,1741601210.9197662
166,1,1,3,747,15,0.115234375,1.01171875,-0.0751953125,0.0,0.1220703125,-0.1220703125,-295.3875552113807,99.76761027935525,-126.87396405355932,1741601210.9261727
167,1,1,3,762,15,0.115234375,1.0029296875,-0.091796875,-0.1220703125,0.06103515625,0.1220703125,-290.89693397579305,122.22071645729363,-117.84728527983165,1741601210.932597
168,1,1,3,777,15,0.1201171875,0.99462890625,-0.09130859375,-0.1220703125,0.0,0.06103515625,-305.8656714277519,107.2519790053347,-129.8828569781352,1741601210.9390042
169,1,1,3,792,15,0.1220703125,1.00146484375,-0.0859375,-0.244140625,0.06103515625,0.06103515625,-295.3875552113807,102.76135776974702,-119.35173174211958,1741601210.945422
170,1,1,3,807,15,0.12890625,1.0029296875,-0.08740234375,-0.06103515625,0.0,0.30517578125,-281.9156915046177,99.76761027935525,-126.87396405355932,1741601210.951824
171,1,1,3,822,15,0.115234375,1.001953125,-0.10498046875,0.0,-0.18310546875,0.0,-292.39380772098895,110.2457264957265,-129.8828569781352,1741601210.9582124
172,1,1,3,837,15,0.11669921875,1.0048828125,-0.0869140625,-0.06103515625,0.06103515625,0.06103515625,-287.90318648540125,107.2519790053347,-140.41398221415082,1741601210.9646628
173,1,1,3,852,15,0.11572265625,0.99755859375,-0.09619140625,-0.18310546875,0.0,0.06103515625,-293.8906814661848,98.27073653415934,-120.85617820440754,1741601210.9713469
174,1,1,3,867,15,0.12744140625,1.0048828125,-0.0791015625,0.0,0.06103515625,0.06103515625,-295.3875552113807,102.76135776974702,-129.8828569781352,1741601210.977812
175,1,1,3,882,15,0.1083984375,1.00048828125,-0.091796875,-0.1220703125,0.18310546875,0.1220703125,-296.8844289565766,111.74260024092237,-138.9095357518629,1741601210.9842465
176,1,1,3,897,15,0.11572265625,1.00244140625,-0.07861328125,-0.06103515625,0.0,0.30517578125,-301.3750501921643,129.7050851832731,-128.37841051584726,1741601211.0204628
177,1,1,3,912,15,0.11279296875,0.99951171875,-0.07666015625,-0.06103515625,-0.06103515625,0.18310546875,-284.90943899500945,92.28324155337577,-132.89174990271113,1741601211.0270004
178,1,1,3,927,15,0.11474609375,1.001953125,-0.0849609375,-0.30517578125,0.18310546875,0.18310546875,-304.368797682556,93.78011529857167,-128.37841051584726,1741601211.043845
179,1,1,3,942,15,0.11767578125,0.994140625,-0.07421875,-0.1220703125,-0.1220703125,0.0,-304.368797682556,126.7113376928813,-120.85617820440754,1741601211.0502746
180,1,1,3,957,15,0.1123046875,1.001953125,-0.0791015625,0.06103515625,0.1220703125,0.0,-286.40631274020535,104.25823151494292,-117.84728527983165,1741601211.0566592
181,1,1,3,972,15,0.11474609375,1.0009765625,-0.08154296875,0.0,0.1220703125,0.1220703125,-301.3750501921643,111.74260024092237,-120.85617820440754,1741601211.063068
182,1,1,3,987,15,0.1171875,1.00390625,-0.08984375,0.0,0.244140625,0.1220703125,-290.89693397579305,108.7488527505306,-123.86507112898344,1741601211.069468
183,1,1,4,2,15,0.1142578125,0.9951171875,-0.08544921875,0.0,0.18310546875,0.06103515625,-307.3625451729478,104.25823151494292,-120.85617820440754,1741601211.07585
184,1,1,4,17,15,0.11572265625,0.9970703125,-0.07373046875,0.06103515625,0.1220703125,0.06103515625,-290.89693397579305,98.27073653415934,-123.86507112898344,1741601211.0822396
185,1,1,4,32,15,0.12060546875,0.99560546875,-0.087890625,0.1220703125,0.0,0.0,-293.8906814661848,108.7488527505306,-123.86507112898344,1741601211.0886843
186,1,1,4,47,15,0.12060546875,1.0,-0.10107421875,0.06103515625,0.0,0.18310546875,-305.8656714277519,120.72384271209773,-137.40508928957496,1741601211.1052804
187,1,1,4,62,15,0.11376953125,1.0029296875,-0.0908203125,0.06103515625,0.06103515625,0.18310546875,-298.3813027017725,117.73009522170595,-126.87396405355932,1741601211.111707
188,1,1,4,77,15,0.12255859375,1.001953125,-0.10546875,-0.06103515625,0.30517578125,0.1220703125,-286.40631274020535,111.74260024092237,-131.38730344042315,1741601211.118349
189,1,1,4,92,15,0.1220703125,0.99951171875,-0.1005859375,0.06103515625,0.244140625,0.18310546875,-295.3875552113807,102.76135776974702,-122.36062466669549,1741601211.1247828
190,1,1,4,107,15,0.1162109375,1.00390625,-0.08984375,0.18310546875,0.0,0.0,-292.39380772098895,113.23947398611827,-129.8828569781352,1741601211.1311882
191,1,1,4,122,15,0.1220703125,0.99560546875,-0.08447265625,0.0,0.06103515625,0.06103515625,-287.90318648540125,107.2519790053347,-137.40508928957496,1741601211.1378312
192,1,1,4,137,15,0.12060546875,0.99658203125,-0.08154296875,0.0,0.0,0.06103515625,-295.3875552113807,95.27698904376757,-140.41398221415082,1741601211.1443608
193,1,1,4,152,15,0.119140625,1.0009765625,-0.0927734375,0.0,0.0,0.244140625,-290.89693397579305,108.7488527505306,-120.85617820440754,1741601211.150769
194,1,1,4,167,15,0.12890625,0.9892578125,-0.091796875,0.06103515625,0.0,0.244140625,-290.89693397579305,104.25823151494292,-114.83839235525575,1741601211.1571467
195,1,1,4,182,15,0.12548828125,0.99658203125,-0.08642578125,0.244140625,0.06103515625,0.06103515625,-295.3875552113807,131.201958928469,-111.82949943067986,1741601211.1635432
196,1,1,4,197,15,0.1142578125,0.99755859375,-0.10009765625,0.06103515625,0.06103515625,0.06103515625,-283.4125652498136,108.7488527505306,-131.38730344042315,1741601211.1699417
197,1,1,4,212,15,0.1201171875,0.99853515625,-0.0908203125,0.06103515625,-0.1220703125,0.0,-278.92194401422586,101.26448402455115,-123.86507112898344,1741601211.192637
198,1,1,4,227,15,0.11865234375,1.00341796875,-0.08251953125,0.18310546875,0.0,0.0,-293.8906814661848,98.27073653415934,-128.37841051584726,1741601211.1990657
199,1,1,4,242,15,0.11279296875,0.99853515625,-0.0859375,0.06103515625,0.06103515625,0.0,-290.89693397579305,111.74260024092237,-149.44066098787852,1741601211.2054758
200,1,1,4,257,15,0.115234375,0.99951171875,-0.09228515625,0.0,0.1220703125,0.244140625,-293.8906814661848,119.22696896690185,-131.38730344042315,1741601211.2118914
201,1,1,4,272,15,0.11328125,1.00634765625,-0.08740234375,0.18310546875,0.0,0.30517578125,-293.8906814661848,108.7488527505306,-123.86507112898344,1741601211.2183285
202,1,1,4,287,15,0.11181640625,1.00048828125,-0.0927734375,0.3662109375,0.06103515625,0.3662109375,-307.3625451729478,111.74260024092237,-117.84728527983165,1741601211.2247596
203,1,1,4,302,15,0.12109375,0.9970703125,-0.091796875,0.18310546875,-0.06103515625,0.30517578125,-296.8844289565766,93.78011529857167,-131.38730344042315,1741601211.231182
204,1,1,4,317,15,0.1240234375,0.994140625,-0.06982421875,0.1220703125,-0.06103515625,0.48828125,-292.39380772098895,107.2519790053347,-126.87396405355932,1741601211.2375681
205,1,1,4,332,15,0.12353515625,1.00341796875,-0.078125,0.0,0.0,0.67138671875,-292.39380772098895,110.2457264957265,-119.35173174211958,1741601211.2643712
206,1,1,4,347,15,0.1171875,1.0048828125,-0.09033203125,0.30517578125,0.1220703125,0.6103515625,-292.39380772098895,113.23947398611827,-132.89174990271113,1741601211.270771
207,1,1,4,362,15,0.12353515625,0.994140625,-0.08935546875,0.244140625,0.0,0.67138671875,-293.8906814661848,93.78011529857167,-134.39619636499907,1741601211.2771237
208,1,1,4,377,15,0.12255859375,0.99609375,-0.08544921875,0.1220703125,0.0,0.79345703125,-296.8844289565766,108.7488527505306,-120.85617820440754,1741601211.283584
209,1,1,4,392,15,0.11669921875,1.00341796875,-0.087890625,0.1220703125,-0.06103515625,0.91552734375,-284.90943899500945,113.23947398611827,-116.34283881754371,1741601211.2899945
210,1,1,4,407,15,0.11767578125,1.00341796875,-0.09033203125,0.30517578125,-0.18310546875,0.91552734375,-295.3875552113807,110.2457264957265,-116.34283881754371,1741601211.2963572
211,1,1,4,422,15,0.11181640625,1.001953125,-0.09033203125,0.244140625,-0.06103515625,0.91552734375,-283.4125652498136,122.22071645729363,-120.85617820440754,1741601211.3027427
212,1,1,4,437,15,0.12255859375,1.0068359375,-0.08056640625,0.18310546875,0.18310546875,0.79345703125,-293.8906814661848,104.25823151494292,-131.38730344042315,1741601211.4694471
213,1,1,4,452,15,0.1259765625,0.99853515625,-0.103515625,0.3662109375,0.18310546875,0.79345703125,-287.90318648540125,110.2457264957265,-132.89174990271113,1741601211.4758546
214,1,1,4,467,15,0.1240234375,0.99951171875,-0.08251953125,0.48828125,0.18310546875,0.79345703125,-305.8656714277519,117.73009522170595,-119.35173174211958,1741601211.4822445
215,1,1,4,482,15,0.12158203125,0.98974609375,-0.078125,0.30517578125,0.06103515625,0.9765625,-298.3813027017725,113.23947398611827,-132.89174990271113,1741601211.4885972
216,1,1,4,497,15,0.12744140625,0.994140625,-0.09326171875,0.30517578125,0.0,0.732421875,-275.92819652383406,87.79262031778809,-141.9184286764388,1741601211.4949758
217,1,1,4,512,15,0.1171875,0.99755859375,-0.0966796875,0.30517578125,0.0,0.9765625,-305.8656714277519,120.72384271209773,-122.36062466669549,1741601211.5087059
218,1,1,4,527,15,0.1201171875,1.0,-0.0849609375,0.06103515625,0.1220703125,0.67138671875,-295.3875552113807,128.2082114380772,-116.34283881754371,1741601211.5518448
219,1,1,4,542,15,0.130859375,1.001953125,-0.09375,0.3662109375,0.1220703125,0.6103515625,-283.4125652498136,83.30199908220041,-128.37841051584726,1741601211.5582263
220,1,1,4,557,15,0.126953125,0.99462890625,-0.08251953125,0.42724609375,0.30517578125,0.30517578125,-293.8906814661848,111.74260024092237,-128.37841051584726,1741601211.963983
221,1,1,4,572,15,0.12451171875,0.99755859375,-0.091796875,0.6103515625,0.42724609375,0.244140625,-304.368797682556,122.22071645729363,-120.85617820440754,1741601211.9704928
222,1,1,4,587,15,0.1162109375,1.00732421875,-0.08935546875,0.6103515625,0.3662109375,0.0,-296.8844289565766,104.25823151494292,-123.86507112898344,1741601211.9768507
223,1,1,4,602,15,0.12548828125,0.99755859375,-0.087890625,0.54931640625,0.54931640625,-0.18310546875,-298.3813027017725,110.2457264957265,-132.89174990271113,1741601211.983245
224,1,1,4,617,15,0.11279296875,0.9931640625,-0.08984375,0.6103515625,0.54931640625,-0.42724609375,-296.8844289565766,108.7488527505306,-131.38730344042315,1741601211.9896224
225,1,1,4,632,15,0.12451171875,0.9970703125,-0.08837890625,0.67138671875,0.3662109375,-0.48828125,-292.39380772098895,107.2519790053347,-129.8828569781352,1741601211.9959943
226,1,1,4,647,15,0.1328125,0.99755859375,-0.09375,0.732421875,0.42724609375,-0.79345703125,-287.90318648540125,110.2457264957265,-132.89174990271113,1741601212.0130599
227,1,1,4,662,15,0.12646484375,0.99853515625,-0.09228515625,0.91552734375,0.67138671875,-0.79345703125,-284.90943899500945,102.76135776974702,-126.87396405355932,1741601212.8123991
228,1,1,4,677,15,0.12158203125,1.00634765625,-0.0810546875,0.8544921875,0.48828125,-1.03759765625,-304.368797682556,108.7488527505306,-123.86507112898344,1741601212.8188252
229,1,1,4,692,15,0.1201171875,1.001953125,-0.09228515625,0.732421875,0.54931640625,-0.91552734375,-304.368797682556,116.23322147651005,-128.37841051584726,1741601212.8252327
230,1,1,4,707,15,0.1279296875,1.0048828125,-0.09716796875,0.67138671875,0.42724609375,-0.8544921875,-293.8906814661848,93.78011529857167,-117.84728527983165,1741601212.8318017
231,1,1,4,722,15,0.12060546875,0.998046875,-0.08837890625,0.732421875,0.48828125,-0.79345703125,-305.8656714277519,117.73009522170595,-122.36062466669549,1741601212.8382552
232,1,1,4,737,15,0.11328125,0.9990234375,-0.0859375,0.67138671875,0.42724609375,-0.9765625,-290.89693397579305,108.7488527505306,-120.85617820440754,1741601213.172351
233,1,1,4,752,15,0.1201171875,1.0048828125,-0.0927734375,0.6103515625,0.18310546875,-0.8544921875,-287.90318648540125,102.76135776974702,-126.87396405355932,1741601213.1787374
234,1,1,4,767,15,0.12109375,1.001953125,-0.08544921875,0.79345703125,0.0,-0.67138671875,-278.92194401422586,101.26448402455115,-123.86507112898344,1741601213.1851537
235,1,1,4,782,15,0.12109375,0.99951171875,-0.0908203125,0.6103515625,0.0,-0.732421875,-301.3750501921643,119.22696896690185,-138.9095357518629,1741601213.191537
236,1,1,4,797,15,0.12744140625,0.9990234375,-0.11181640625,0.732421875,0.0,-0.54931640625,-286.40631274020535,98.27073653415934,-131.38730344042315,1741601213.1978946
237,1,1,4,812,15,0.12158203125,0.98974609375,-0.0869140625,0.6103515625,0.06103515625,-0.48828125,-295.3875552113807,113.23947398611827,-129.8828569781352,1741601213.2042675
238,1,1,4,827,15,0.1220703125,0.99462890625,-0.099609375,0.48828125,0.06103515625,-0.42724609375,-302.8719239373602,110.2457264957265,-126.87396405355932,1741601213.2254636
239,1,1,4,842,15,0.123046875,0.99951171875,-0.09130859375,0.54931640625,-0.1220703125,-0.3662109375,-290.89693397579305,104.25823151494292,-123.86507112898344,1741601213.2321305
240,1,1,4,857,15,0.12109375,0.998046875,-0.08154296875,0.6103515625,-0.1220703125,-0.30517578125,-292.39380772098895,107.2519790053347,-140.41398221415082,1741601213.2385144
241,1,1,4,872,15,0.11962890625,1.00390625,-0.08251953125,0.42724609375,-0.244140625,-0.30517578125,-277.42507026902996,110.2457264957265,-116.34283881754371,1741601213.2452905
242,1,1,4,887,15,0.12451171875,0.99755859375,-0.095703125,0.30517578125,-0.06103515625,-0.1220703125,-293.8906814661848,122.22071645729363,-123.86507112898344,1741601213.2517176
243,1,1,4,902,15,0.12060546875,1.00439453125,-0.08837890625,0.3662109375,-0.06103515625,-0.1220703125,-287.90318648540125,110.2457264957265,-129.8828569781352,1741601213.2580845
244,1,1,4,917,15,0.1220703125,0.9912109375,-0.09619140625,0.42724609375,-0.18310546875,-0.1220703125,-302.8719239373602,99.76761027935525,-137.40508928957496,1741601213.2696676
245,1,1,4,932,15,0.11669921875,1.001953125,-0.087890625,0.42724609375,0.0,0.0,-298.3813027017725,110.2457264957265,-132.89174990271113,1741601213.386738
246,1,1,4,947,15,0.1103515625,0.99609375,-0.09765625,0.3662109375,-0.30517578125,0.0,-292.39380772098895,110.2457264957265,-119.35173174211958,1741601213.393191
247,1,1,4,962,15,0.11669921875,1.00048828125,-0.10107421875,0.3662109375,-0.3662109375,0.0,-284.90943899500945,110.2457264957265,-126.87396405355932,1741601213.399577
248,1,1,4,977,15,0.11572265625,1.0009765625,-0.095703125,0.3662109375,-0.18310546875,0.0,-298.3813027017725,99.76761027935525,-116.34283881754371,1741601213.4059484
249,1,1,4,992,15,0.11865234375,0.9970703125,-0.09326171875,0.244140625,0.1220703125,0.0,-298.3813027017725,107.2519790053347,-140.41398221415082,1741601213.4178827
250,1,1,5,7,15,0.12646484375,1.0009765625,-0.09228515625,0.18310546875,0.0,0.0,-290.89693397579305,98.27073653415934,-138.9095357518629,1741601213.4243233
251,1,1,5,22,15,0.12060546875,0.9921875,-0.09716796875,0.06103515625,-0.06103515625,0.0,-292.39380772098895,95.27698904376757,-119.35173174211958,1741601213.430721
252,1,1,5,37,15,0.1171875,0.98486328125,-0.0947265625,0.1220703125,-0.06103515625,0.1220703125,-290.89693397579305,90.78636780817989,-138.9095357518629,1741601213.4370973
253,1,1,5,52,15,0.11328125,1.00244140625,-0.083984375,0.18310546875,-0.244140625,0.1220703125,-290.89693397579305,101.26448402455115,-128.37841051584726,1741601213.9734244
254,1,1,5,67,15,0.12158203125,0.998046875,-0.09716796875,0.1220703125,0.0,0.06103515625,-292.39380772098895,95.27698904376757,-137.40508928957496,1741601213.9799078
255,1,1,5,82,15,0.1123046875,0.99951171875,-0.08740234375,0.18310546875,0.0,0.244140625,-295.3875552113807,107.2519790053347,-132.89174990271113,1741601213.98628
256,1,1,5,97,15,0.1171875,1.00390625,-0.095703125,0.244140625,0.18310546875,0.06103515625,-296.8844289565766,104.25823151494292,-123.86507112898344,1741601213.9926832
257,1,1,5,112,15,0.11572265625,1.0,-0.09912109375,0.18310546875,0.0,0.18310546875,-283.4125652498136,111.74260024092237,-134.39619636499907,1741601213.9990437
258,1,1,5,127,15,0.11767578125,1.0029296875,-0.1142578125,-0.1220703125,-0.18310546875,0.244140625,-290.89693397579305,98.27073653415934,-120.85617820440754,1741601214.0054474
259,1,1,5,142,15,0.12060546875,1.00537109375,-0.08349609375,0.0,-0.1220703125,0.244140625,-304.368797682556,111.74260024092237,-128.37841051584726,1741601214.0118353
260,1,1,5,157,15,0.1240234375,1.00341796875,-0.0908203125,0.1220703125,0.0,0.30517578125,-295.3875552113807,117.73009522170595,-132.89174990271113,1741601214.0186338
261,1,1,5,172,15,0.1201171875,1.0009765625,-0.0947265625,0.0,-0.1220703125,0.30517578125,-281.9156915046177,107.2519790053347,-119.35173174211958,1741601214.025069
262,1,1,5,187,15,0.11474609375,0.99951171875,-0.09619140625,-0.1220703125,0.06103515625,0.48828125,-290.89693397579305,111.74260024092237,-131.38730344042315,1741601214.0314655
263,1,1,5,202,15,0.1220703125,0.99609375,-0.08935546875,0.0,0.0,0.3662109375,-286.40631274020535,101.26448402455115,-141.9184286764388,1741601214.0378287
264,1,1,5,217,15,0.12939453125,1.0029296875,-0.091796875,-0.1220703125,0.0,0.3662109375,-298.3813027017725,113.23947398611827,-129.8828569781352,1741601215.3497207
265,1,1,5,232,15,0.12353515625,0.99951171875,-0.10693359375,-0.1220703125,0.0,0.30517578125,-293.8906814661848,101.26448402455115,-134.39619636499907,1741601215.3561037
266,1,1,5,247,15,0.12060546875,1.00146484375,-0.09912109375,-0.06103515625,0.0,0.48828125,-292.39380772098895,110.2457264957265,-126.87396405355932,1741601215.3624728
267,1,1,5,262,15,0.12109375,1.00048828125,-0.10009765625,-0.06103515625,0.06103515625,0.3662109375,-290.89693397579305,101.26448402455115,-131.38730344042315,1741601215.368952
268,1,1,5,277,15,0.12451171875,1.00244140625,-0.09765625,0.0,0.18310546875,0.48828125,-290.89693397579305,108.7488527505306,-134.39619636499907,1741601215.3753822
269,1,1,5,292,15,0.1162109375,0.9990234375,-0.08984375,-0.18310546875,0.0,0.3662109375,-286.40631274020535,108.7488527505306,-123.86507112898344,1741601217.1585896
270,1,1,5,307,15,0.13037109375,0.99365234375,-0.0830078125,-0.06103515625,0.18310546875,0.30517578125,-295.3875552113807,110.2457264957265,-129.8828569781352,1741601217.1701636
271,1,1,5,322,15,0.11962890625,0.99755859375,-0.08544921875,-0.1220703125,0.06103515625,0.18310546875,-290.89693397579305,101.26448402455115,-131.38730344042315,1741601217.1765263
272,1,1,5,337,15,0.12548828125,0.9990234375,-0.0859375,0.0,0.06103515625,0.48828125,-277.42507026902996,113.23947398611827,-126.87396405355932,1741601217.1829274
273,1,1,5,352,15,0.1162109375,0.99951171875,-0.09375,0.0,0.0,0.1220703125,-293.8906814661848,111.74260024092237,-138.9095357518629,1741601217.1892595
274,1,1,5,367,15,0.125,1.00439453125,-0.0888671875,-0.06103515625,-0.06103515625,0.244140625,-292.39380772098895,117.73009522170595,-119.35173174211958,1741601217.1956496
275,1,1,5,382,15,0.119140625,1.0068359375,-0.09033203125,-0.1220703125,0.1220703125,0.244140625,-277.42507026902996,99.76761027935525,-119.35173174211958,1741601217.2020428
276,1,1,5,397,15,0.123046875,0.99560546875,-0.0986328125,-0.244140625,0.0,0.1220703125,-295.3875552113807,107.2519790053347,-122.36062466669549,1741601217.208395
277,1,1,5,412,15,0.12255859375,1.0009765625,-0.08349609375,-0.1220703125,0.244140625,0.18310546875,-292.39380772098895,113.23947398611827,-122.36062466669549,1741601218.7873604
278,1,1,5,427,15,0.1240234375,1.00146484375,-0.09130859375,-0.244140625,0.18310546875,0.30517578125,-293.8906814661848,111.74260024092237,-123.86507112898344,1741601218.794329
279,1,1,5,442,15,0.11865234375,1.00732421875,-0.0927734375,-0.30517578125,0.0,0.30517578125,-293.8906814661848,111.74260024092237,-104.30726711924014,1741601218.806012
280,1,1,5,457,15,0.1220703125,0.998046875,-0.0859375,-0.18310546875,0.06103515625,0.3662109375,-302.8719239373602,110.2457264957265,-126.87396405355932,1741601218.8294702
281,1,1,5,472,15,0.1259765625,0.99609375,-0.08349609375,-0.244140625,0.0,0.54931640625,-292.39380772098895,110.2457264957265,-129.8828569781352,1741601218.835895
282,1,1,5,487,15,0.13134765625,1.005859375,-0.0869140625,-0.06103515625,0.1220703125,0.18310546875,-286.40631274020535,108.7488527505306,-110.32505296839192,1741601218.8423285
283,1,1,5,502,15,0.11767578125,1.0009765625,-0.09228515625,-0.1220703125,0.30517578125,0.1220703125,-292.39380772098895,92.28324155337577,-122.36062466669549,1741601218.910027
284,1,1,5,517,15,0.11474609375,0.998046875,-0.1005859375,-0.06103515625,0.244140625,0.1220703125,-304.368797682556,104.25823151494292,-128.37841051584726,1741601218.9410322
285,1,1,5,532,15,0.12060546875,0.99169921875,-0.09716796875,-0.06103515625,0.1220703125,0.18310546875,-296.8844289565766,108.7488527505306,-131.38730344042315,1741601218.9474118
286,1,1,5,547,15,0.11962890625,1.0,-0.09130859375,0.0,0.30517578125,0.0,-292.39380772098895,102.76135776974702,-119.35173174211958,1741601218.9856377
287,1,1,5,562,15,0.12109375,1.0078125,-0.09228515625,-0.1220703125,0.18310546875,0.1220703125,-292.39380772098895,102.76135776974702,-119.35173174211958,1741601218.9937716
288,1,1,5,577,15,0.13134765625,1.00146484375,-0.09716796875,0.06103515625,0.18310546875,0.06103515625,-296.8844289565766,93.78011529857167,-123.86507112898344,1741601219.0157332
289,1,1,5,592,15,0.11669921875,0.99755859375,-0.1005859375,-0.06103515625,0.06103515625,0.3662109375,-295.3875552113807,102.76135776974702,-132.89174990271113,1741601219.0227113
290,1,1,5,607,15,0.12939453125,0.99951171875,-0.08642578125,0.0,0.30517578125,0.1220703125,-286.40631274020535,101.26448402455115,-128.37841051584726,1741601219.0292227
291,1,1,5,622,15,0.1201171875,1.0048828125,-0.09716796875,0.0,0.30517578125,0.18310546875,-301.3750501921643,101.26448402455115,-134.39619636499907,1741601219.035718
292,1,1,5,637,15,0.12255859375,0.99609375,-0.09912109375,0.0,0.42724609375,0.0,-286.40631274020535,108.7488527505306,-138.9095357518629,1741601219.042203
293,1,1,5,652,15,0.1201171875,0.998046875,-0.08349609375,0.06103515625,0.30517578125,0.06103515625,-286.40631274020535,104.25823151494292,-128.37841051584726,1741601219.0486057
294,1,1,5,667,15,0.12548828125,0.99853515625,-0.068359375,0.06103515625,0.18310546875,0.30517578125,-293.8906814661848,98.27073653415934,-134.39619636499907,1741601219.084353
295,1,1,5,682,15,0.1201171875,0.9931640625,-0.1064453125,0.1220703125,0.0,0.244140625,-293.8906814661848,108.7488527505306,-134.39619636499907,1741601219.0959673
296,1,1,5,697,15,0.1298828125,0.99951171875,-0.0908203125,0.1220703125,0.244140625,0.48828125,-298.3813027017725,117.73009522170595,-122.36062466669549,1741601219.1024625
297,1,1,5,712,15,0.12890625,0.99853515625,-0.1044921875,0.0,0.3662109375,0.42724609375,-293.8906814661848,119.22696896690185,-128.37841051584726,1741601219.108855
298,1,1,5,727,15,0.1220703125,0.98974609375,-0.0869140625,0.06103515625,0.30517578125,0.30517578125,-304.368797682556,119.22696896690185,-131.38730344042315,1741601219.1153057
299,1,1,5,742,15,0.12451171875,0.99853515625,-0.0947265625,0.1220703125,0.18310546875,0.42724609375,-302.8719239373602,110.2457264957265,-137.40508928957496,1741601219.1221898
300,1,1,5,757,15,0.1171875,0.99267578125,-0.10693359375,0.06103515625,0.06103515625,0.3662109375,-292.39380772098895,110.2457264957265,-122.36062466669549,1741601219.1285915
301,1,1,5,772,15,0.125,0.99755859375,-0.0869140625,0.1220703125,0.30517578125,0.42724609375,-290.89693397579305,119.22696896690185,-120.85617820440754,1741601219.1349976
302,1,1,5,787,15,0.12353515625,1.0048828125,-0.091796875,-0.06103515625,0.1220703125,0.3662109375,-284.90943899500945,120.72384271209773,-132.89174990271113,1741601219.1466656
303,1,1,5,802,15,0.12841796875,1.001953125,-0.09130859375,0.06103515625,0.06103515625,0.244140625,-301.3750501921643,111.74260024092237,-144.92732160101465,1741601219.1531487
304,1,1,5,817,15,0.12744140625,1.001953125,-0.08837890625,0.0,0.0,0.67138671875,-301.3750501921643,116.23322147651005,-123.86507112898344,1741601219.1596143
305,1,1,5,832,15,0.126953125,1.0,-0.0849609375,0.0,0.0,0.54931640625,-310.3562926633397,99.76761027935525,-122.36062466669549,1741601219.1659975
306,1,1,5,847,15,0.12744140625,0.99462890625,-0.09375,0.0,-0.244140625,0.42724609375,-298.3813027017725,110.2457264957265,-137.40508928957496,1741601219.1724205
307,1,1,5,862,15,0.12109375,0.9990234375,-0.09033203125,0.0,0.0,0.48828125,-293.8906814661848,104.25823151494292,-138.9095357518629,1741601219.1788173
308,1,1,5,877,15,0.12744140625,0.99853515625,-0.08935546875,0.0,0.0,0.48828125,-295.3875552113807,113.23947398611827,-126.87396405355932,1741601219.1852217
309,1,1,5,892,15,0.12841796875,1.00439453125,-0.10107421875,-0.06103515625,-0.06103515625,0.6103515625,-286.40631274020535,93.78011529857167,-131.38730344042315,1741601219.1916625
310,1,1,5,907,15,0.12939453125,1.0009765625,-0.09130859375,0.0,-0.1220703125,0.3662109375,-298.3813027017725,117.73009522170595,-129.8828569781352,1741601219.1980562
311,1,1,5,922,15,0.12255859375,1.001953125,-0.09033203125,0.1220703125,-0.06103515625,0.3662109375,-287.90318648540125,107.2519790053347,-132.89174990271113,1741601219.2044876
312,1,1,5,937,15,0.13720703125,1.0048828125,-0.103515625,0.18310546875,-0.06103515625,0.18310546875,-293.8906814661848,108.7488527505306,-120.85617820440754,1741601219.2111745
313,1,1,5,952,15,0.125,1.0009765625,-0.087890625,0.06103515625,0.244140625,0.3662109375,-305.8656714277519,110.2457264957265,-116.34283881754371,1741601219.218054
314,1,1,5,967,15,0.126953125,0.99755859375,-0.09033203125,-0.30517578125,0.244140625,0.1220703125,-292.39380772098895,107.2519790053347,-132.89174990271113,1741601219.2245204
315,1,1,5,982,15,0.12890625,1.0009765625,-0.08349609375,0.0,-0.1220703125,0.30517578125,-281.9156915046177,117.73009522170595,-132.89174990271113,1741601219.230956
316,1,1,5,997,15,0.1220703125,1.00048828125,-0.09033203125,-0.06103515625,-0.18310546875,0.54931640625,-302.8719239373602,120.72384271209773,-122.36062466669549,1741601219.2373435
317,1,1,6,12,15,0.130859375,1.00244140625,-0.0927734375,-0.1220703125,-0.1220703125,0.6103515625,-298.3813027017725,102.76135776974702,-119.35173174211958,1741601219.2451563
318,1,1,6,27,15,0.1279296875,0.9970703125,-0.08642578125,0.0,0.0,0.42724609375,-301.3750501921643,98.27073653415934,-114.83839235525575,1741601219.251874
319,1,1,6,42,15,0.13232421875,0.99755859375,-0.09912109375,0.0,0.1220703125,0.244140625,-295.3875552113807,102.76135776974702,-137.40508928957496,1741601219.258264
320,1,1,6,57,15,0.1279296875,1.0078125,-0.09326171875,-0.06103515625,0.06103515625,0.244140625,-304.368797682556,111.74260024092237,-128.37841051584726,1741601219.2646792
321,1,1,6,72,15,0.13330078125,0.99951171875,-0.08056640625,-0.06103515625,0.0,0.30517578125,-298.3813027017725,102.76135776974702,-140.41398221415082,1741601219.27114
322,1,1,6,87,15,0.134765625,1.0,-0.08984375,0.0,-0.1220703125,0.30517578125,-278.92194401422586,104.25823151494292,-128.37841051584726,1741601219.277539
323,1,1,6,102,15,0.123046875,0.99462890625,-0.08935546875,0.06103515625,-0.18310546875,0.3662109375,-301.3750501921643,108.7488527505306,-120.85617820440754,1741601219.2839875
324,1,1,6,117,15,0.12939453125,1.00390625,-0.09228515625,0.0,0.0,0.244140625,-293.8906814661848,116.23322147651005,-123.86507112898344,1741601219.2904048
325,1,1,6,132,15,0.134765625,0.998046875,-0.09130859375,0.06103515625,0.0,0.3662109375,-298.3813027017725,102.76135776974702,-140.41398221415082,1741601219.296798
326,1,1,6,147,15,0.12841796875,1.00341796875,-0.0927734375,0.0,0.18310546875,0.30517578125,-295.3875552113807,110.2457264957265,-129.8828569781352,1741601219.3032033
327,1,1,6,162,15,0.12744140625,0.9912109375,-0.08447265625,0.06103515625,0.0,0.42724609375,-301.3750501921643,101.26448402455115,-123.86507112898344,1741601219.3096285
328,1,1,6,177,15,0.1318359375,1.0009765625,-0.10107421875,0.0,-0.06103515625,0.3662109375,-301.3750501921643,101.26448402455115,-134.39619636499907,1741601219.3160982
329,1,1,6,192,15,0.12841796875,1.00048828125,-0.10205078125,0.06103515625,0.18310546875,0.18310546875,-301.3750501921643,98.27073653415934,-128.37841051584726,1741601219.3280978
330,1,1,6,207,15,0.12255859375,0.9970703125,-0.09375,0.06103515625,0.0,0.30517578125,-298.3813027017725,107.2519790053347,-122.36062466669549,1741601219.3345559
331,1,1,6,222,15,0.12548828125,1.0048828125,-0.087890625,0.244140625,-0.18310546875,0.244140625,-283.4125652498136,104.25823151494292,-128.37841051584726,1741601219.3409755
332,1,1,6,237,15,0.1318359375,0.99658203125,-0.1083984375,0.06103515625,-0.06103515625,0.42724609375,-301.3750501921643,98.27073653415934,-123.86507112898344,1741601219.3475294
333,1,1,6,252,15,0.125,0.9931640625,-0.09130859375,0.18310546875,-0.1220703125,0.18310546875,-298.3813027017725,113.23947398611827,-137.40508928957496,1741601219.3539429
334,1,1,6,267,15,0.1279296875,1.00146484375,-0.0869140625,0.06103515625,0.0,0.1220703125,-302.8719239373602,102.76135776974702,-129.8828569781352,1741601219.360348
335,1,1,6,282,15,0.13623046875,0.99658203125,-0.099609375,0.18310546875,0.0,0.244140625,-304.368797682556,111.74260024092237,-131.38730344042315,1741601219.3672373
336,1,1,6,297,15,0.130859375,0.994140625,-0.087890625,0.18310546875,-0.06103515625,0.30517578125,-301.3750501921643,108.7488527505306,-128.37841051584726,1741601219.3738005
337,1,1,6,312,15,0.1171875,1.00146484375,-0.09814453125,0.244140625,0.0,0.30517578125,-295.3875552113807,102.76135776974702,-126.87396405355932,1741601219.3803115
338,1,1,6,327,15,0.12548828125,0.99462890625,-0.09912109375,0.18310546875,0.0,0.30517578125,-302.8719239373602,99.76761027935525,-132.89174990271113,1741601219.386704
339,1,1,6,342,15,0.13232421875,0.99365234375,-0.08154296875,0.1220703125,-0.06103515625,0.3662109375,-286.40631274020535,104.25823151494292,-138.9095357518629,1741601219.3931139
340,1,1,6,357,15,0.12548828125,0.998046875,-0.10205078125,0.3662109375,0.0,0.18310546875,-292.39380772098895,113.23947398611827,-122.36062466669549,1741601219.3995097
341,1,1,6,372,15,0.123046875,0.9921875,-0.091796875,0.244140625,0.0,0.18310546875,-295.3875552113807,125.21446394768543,-122.36062466669549,1741601219.4059024
342,1,1,6,387,15,0.13330078125,1.001953125,-0.1015625,0.244140625,0.06103515625,0.244140625,-286.40631274020535,98.27073653415934,-120.85617820440754,1741601219.4123175
343,1,1,6,402,15,0.13330078125,0.99755859375,-0.09765625,0.244140625,0.0,0.3662109375,-307.3625451729478,111.74260024092237,-123.86507112898344,1741601219.4246175
344,1,1,6,417,15,0.1328125,1.00341796875,-0.09912109375,0.3662109375,0.0,0.42724609375,-295.3875552113807,92.28324155337577,-126.87396405355932,1741601219.4312325
345,1,1,6,432,15,0.1298828125,0.9970703125,-0.1005859375,0.1220703125,-0.18310546875,0.06103515625,-296.8844289565766,108.7488527505306,-128.37841051584726,1741601219.4376376
346,1,1,6,447,15,0.138671875,1.00146484375,-0.087890625,0.06103515625,-0.06103515625,0.30517578125,-290.89693397579305,108.7488527505306,-128.37841051584726,1741601219.4440718
347,1,1,6,462,15,0.1318359375,1.00244140625,-0.08935546875,0.06103515625,-0.1220703125,0.244140625,-290.89693397579305,90.78636780817989,-128.37841051584726,1741601219.4509525
348,1,1,6,477,15,0.13427734375,1.0,-0.09033203125,0.1220703125,-0.3662109375,0.0,-295.3875552113807,110.2457264957265,-126.87396405355932,1741601219.457358
349,1,1,6,492,15,0.13916015625,0.9931640625,-0.08642578125,0.244140625,-0.06103515625,0.0,-284.90943899500945,102.76135776974702,-129.8828569781352,1741601219.463793
350,1,1,6,507,15,0.1376953125,1.00390625,-0.10107421875,0.244140625,-0.18310546875,0.0,-305.8656714277519,117.73009522170595,-137.40508928957496,1741601219.4702566
351,1,1,6,522,15,0.13427734375,0.99853515625,-0.076171875,0.1220703125,-0.06103515625,-0.06103515625,-295.3875552113807,110.2457264957265,-129.8828569781352,1741601219.4768155
352,1,1,6,537,15,0.13427734375,1.005859375,-0.10546875,0.18310546875,-0.1220703125,-0.06103515625,-311.85316640853557,116.23322147651005,-138.9095357518629,1741601219.4833965
353,1,1,6,552,15,0.13232421875,0.98828125,-0.09130859375,0.1220703125,-0.1220703125,-0.1220703125,-296.8844289565766,101.26448402455115,-134.39619636499907,1741601219.4900126
354,1,1,6,567,15,0.1318359375,0.99853515625,-0.08984375,0.1220703125,-0.1220703125,-0.18310546875,-298.3813027017725,99.76761027935525,-132.89174990271113,1741601219.4964166
355,1,1,6,582,15,0.12841796875,1.00390625,-0.10595703125,0.1220703125,-0.1220703125,-0.30517578125,-287.90318648540125,110.2457264957265,-137.40508928957496,1741601219.5028667
356,1,1,6,597,15,0.13525390625,0.99658203125,-0.0859375,0.244140625,-0.18310546875,-0.42724609375,-301.3750501921643,111.74260024092237,-123.86507112898344,1741601219.509269
357,1,1,6,612,15,0.1337890625,1.0048828125,-0.0986328125,0.30517578125,-0.18310546875,-0.3662109375,-298.3813027017725,107.2519790053347,-129.8828569781352,1741601219.5157201
358,1,1,6,627,15,0.12890625,0.9912109375,-0.09912109375,0.3662109375,-0.06103515625,-0.54931640625,-286.40631274020535,111.74260024092237,-141.9184286764388,1741601219.5225759
359,1,1,6,642,15,0.1328125,0.99267578125,-0.076171875,0.30517578125,0.0,-0.6103515625,-301.3750501921643,108.7488527505306,-117.84728527983165,1741601219.5289812
360,1,1,6,657,15,0.12939453125,0.99169921875,-0.08349609375,0.30517578125,-0.06103515625,-0.48828125,-301.3750501921643,111.74260024092237,-128.37841051584726,1741601219.5354896
361,1,1,6,672,15,0.13037109375,0.998046875,-0.099609375,0.18310546875,-0.244140625,-0.6103515625,-290.89693397579305,98.27073653415934,-134.39619636499907,1741601219.5419564
362,1,1,6,687,15,0.138671875,0.9970703125,-0.09521484375,0.244140625,0.0,-0.6103515625,-295.3875552113807,92.28324155337577,-132.89174990271113,1741601219.5483527
363,1,1,6,702,15,0.1337890625,0.9951171875,-0.0966796875,0.30517578125,0.0,-0.732421875,-301.3750501921643,104.25823151494292,-128.37841051584726,1741601219.5548127
364,1,1,6,717,15,0.1279296875,0.99609375,-0.0908203125,0.30517578125,0.18310546875,-0.79345703125,-283.4125652498136,108.7488527505306,-134.39619636499907,1741601219.5612917
365,1,1,6,732,15,0.13330078125,0.99853515625,-0.080078125,0.1220703125,0.0,-0.8544921875,-304.368797682556,104.25823151494292,-131.38730344042315,1741601219.5677
366,1,1,6,747,15,0.12158203125,0.99951171875,-0.0966796875,0.244140625,-0.42724609375,-0.732421875,-304.368797682556,101.26448402455115,-117.84728527983165,1741601219.5741358
367,1,1,6,762,15,0.12890625,0.99609375,-0.08447265625,-0.06103515625,-0.30517578125,-0.8544921875,-292.39380772098895,92.28324155337577,-129.8828569781352,1741601219.580616
368,1,1,6,777,15,0.138671875,0.99853515625,-0.11474609375,0.0,-0.42724609375,-0.9765625,-301.3750501921643,129.7050851832731,-131.38730344042315,1741601219.5870252
369,1,1,6,792,15,0.1328125,0.9990234375,-0.09326171875,-0.18310546875,-0.06103515625,-1.3427734375,-313.3500401537314,110.2457264957265,-137.40508928957496,1741601219.5934932
370,1,1,6,807,15,0.1298828125,1.0009765625,-0.095703125,0.30517578125,0.0,-1.3427734375,-305.8656714277519,110.2457264957265,-126.87396405355932,1741601219.5999248
371,1,1,6,822,15,0.12744140625,0.9970703125,-0.10302734375,0.18310546875,0.18310546875,-1.5869140625,-301.3750501921643,116.23322147651005,-134.39619636499907,1741601219.6063259
372,1,1,6,837,15,0.126953125,0.99365234375,-0.09326171875,0.30517578125,0.244140625,-1.64794921875,-295.3875552113807,113.23947398611827,-129.8828569781352,1741601219.6127512
373,1,1,6,852,15,0.13818359375,0.99560546875,-0.0859375,0.18310546875,0.244140625,-1.8310546875,-292.39380772098895,113.23947398611827,-122.36062466669549,1741601219.6195943
374,1,1,6,867,15,0.12255859375,1.00439453125,-0.103515625,0.1220703125,0.3662109375,-1.52587890625,-290.89693397579305,104.25823151494292,-123.86507112898344,1741601219.6260145
375,1,1,6,882,15,0.12548828125,0.998046875,-0.1005859375,0.0,0.0,-1.46484375,-304.368797682556,104.25823151494292,-114.83839235525575,1741601219.6324236
376,1,1,6,897,15,0.11865234375,0.9990234375,-0.08984375,0.06103515625,-0.244140625,-1.46484375,-293.8906814661848,101.26448402455115,-120.85617820440754,1741601219.6388223
377,1,1,6,912,15,0.12353515625,1.0,-0.103515625,0.0,-0.30517578125,-1.220703125,-305.8656714277519,102.76135776974702,-126.87396405355932,1741601219.6452553
378,1,1,6,927,15,0.12255859375,0.99951171875,-0.08740234375,-0.1220703125,-0.1220703125,-1.220703125,-296.8844289565766,98.27073653415934,-128.37841051584726,1741601219.651797
379,1,1,6,942,15,0.12060546875,1.0,-0.10986328125,0.0,0.0,-1.40380859375,-295.3875552113807,99.76761027935525,-129.8828569781352,1741601219.6582232
380,1,1,6,957,15,0.12890625,0.99853515625,-0.08984375,-0.06103515625,0.1220703125,-1.46484375,-293.8906814661848,104.25823151494292,-114.83839235525575,1741601219.6646671
381,1,1,6,972,15,0.1171875,0.9951171875,-0.08642578125,0.0,0.1220703125,-1.3427734375,-298.3813027017725,99.76761027935525,-137.40508928957496,1741601219.6711137
382,1,1,6,987,15,0.12158203125,0.994140625,-0.099609375,-0.06103515625,0.18310546875,-1.64794921875,-301.3750501921643,101.26448402455115,-131.38730344042315,1741601219.677521
383,1,1,7,2,15,0.1279296875,0.99560546875,-0.09765625,0.0,0.0,-1.708984375,-296.8844289565766,98.27073653415934,-134.39619636499907,1741601219.6839476
384,1,1,7,17,15,0.123046875,1.00048828125,-0.08447265625,-0.1220703125,0.0,-1.64794921875,-278.92194401422586,108.7488527505306,-134.39619636499907,1741601219.6903687
385,1,1,7,32,15,0.12548828125,0.9921875,-0.09521484375,-0.06103515625,0.0,-1.77001953125,-295.3875552113807,99.76761027935525,-140.41398221415082,1741601219.6967688
386,1,1,7,47,15,0.1201171875,0.99267578125,-0.0888671875,-0.1220703125,0.0,-1.77001953125,-281.9156915046177,102.76135776974702,-122.36062466669549,1741601219.703186
387,1,1,7,62,15,0.11962890625,1.0,-0.0888671875,0.1220703125,0.42724609375,-1.953125,-298.3813027017725,117.73009522170595,-129.8828569781352,1741601219.7095819
388,1,1,7,77,15,0.13037109375,1.00537109375,-0.09375,0.0,0.30517578125,-2.13623046875,-283.4125652498136,104.25823151494292,-131.38730344042315,1741601219.7160008
389,1,1,7,92,15,0.11572265625,0.99755859375,-0.0830078125,0.1220703125,0.54931640625,-2.3193359375,-284.90943899500945,110.2457264957265,-119.35173174211958,1741601219.7562153
390,1,1,7,107,15,0.12060546875,0.99560546875,-0.103515625,-0.1220703125,0.30517578125,-2.3193359375,-293.8906814661848,104.25823151494292,-141.9184286764388,1741601219.7626696
391,1,1,7,122,15,0.11767578125,0.994140625,-0.07568359375,-0.06103515625,0.06103515625,-2.197265625,-296.8844289565766,116.23322147651005,-123.86507112898344,1741601219.7690501
392,1,1,7,137,15,0.12451171875,0.9951171875,-0.08251953125,-0.18310546875,0.18310546875,-2.50244140625,-284.90943899500945,113.23947398611827,-129.8828569781352,1741601219.9616783
393,1,1,7,152,15,0.12109375,1.01171875,-0.0869140625,0.18310546875,0.06103515625,-2.5634765625,-290.89693397579305,93.78011529857167,-131.38730344042315,1741601219.9680593
394,1,1,7,167,15,0.12451171875,0.99560546875,-0.07763671875,0.1220703125,0.30517578125,-2.44140625,-296.8844289565766,108.7488527505306,-120.85617820440754,1741601219.9744453
395,1,1,7,182,15,0.109375,0.9970703125,-0.09228515625,0.06103515625,0.67138671875,-2.5634765625,-298.3813027017725,107.2519790053347,-122.36062466669549,1741601219.9808104
396,1,1,7,197,15,0.1240234375,1.00146484375,-0.09521484375,0.06103515625,0.42724609375,-2.5634765625,-293.8906814661848,116.23322147651005,-117.84728527983165,1741601219.98716
397,1,1,7,212,15,0.1142578125,0.998046875,-0.0849609375,0.18310546875,0.54931640625,-2.62451171875,-302.8719239373602,107.2519790053347,-132.89174990271113,1741601219.9935355
398,1,1,7,227,15,0.11279296875,1.0048828125,-0.08642578125,0.1220703125,0.67138671875,-2.5634765625,-284.90943899500945,113.23947398611827,-129.8828569781352,1741601219.999922
399,1,1,7,242,15,0.11669921875,0.99755859375,-0.087890625,0.244140625,0.8544921875,-2.44140625,-307.3625451729478,101.26448402455115,-128.37841051584726,1741601220.0062735
400,1,1,7,257,15,0.10986328125,0.998046875,-0.1015625,0.30517578125,0.79345703125,-2.38037109375,-295.3875552113807,95.27698904376757,-116.34283881754371,1741601220.012654
401,1,1,7,272,15,0.115234375,1.005859375,-0.1015625,0.244140625,0.732421875,-2.50244140625,-293.8906814661848,111.74260024092237,-128.37841051584726,1741601220.0194638
402,1,1,7,287,15,0.1123046875,0.99658203125,-0.09912109375,0.48828125,0.79345703125,-2.25830078125,-284.90943899500945,107.2519790053347,-129.8828569781352,1741601220.0261135
403,1,1,7,302,15,0.11572265625,1.001953125,-0.09716796875,0.18310546875,0.9765625,-2.3193359375,-283.4125652498136,93.78011529857167,-131.38730344042315,1741601220.0429614
404,1,1,7,317,15,0.11279296875,0.99560546875,-0.091796875,0.42724609375,0.67138671875,-2.3193359375,-304.368797682556,108.7488527505306,-131.38730344042315,1741601220.0493507
405,1,1,7,332,15,0.10986328125,0.99951171875,-0.08740234375,0.6103515625,0.79345703125,-2.50244140625,-293.8906814661848,111.74260024092237,-128.37841051584726,1741601220.055757
406,1,1,7,347,15,0.09765625,0.99658203125,-0.095703125,0.42724609375,0.79345703125,-2.62451171875,-274.43132277863816,117.73009522170595,-132.89174990271113,1741601220.0621576
407,1,1,7,362,15,0.1123046875,1.01025390625,-0.0888671875,0.6103515625,0.91552734375,-2.62451171875,-298.3813027017725,110.2457264957265,-126.87396405355932,1741601220.0685327
408,1,1,7,377,15,0.109375,0.9921875,-0.09619140625,0.42724609375,1.0986328125,-2.74658203125,-293.8906814661848,104.25823151494292,-123.86507112898344,1741601220.0749366
409,1,1,7,392,15,0.109375,1.00146484375,-0.1025390625,0.67138671875,1.0986328125,-2.74658203125,-278.92194401422586,119.22696896690185,-117.84728527983165,1741601220.0813608
410,1,1,7,407,15,0.103515625,1.00390625,-0.1025390625,0.6103515625,1.46484375,-2.50244140625,-292.39380772098895,117.73009522170595,-137.40508928957496,1741601220.0877495
411,1,1,7,422,15,0.09765625,1.00341796875,-0.08349609375,0.67138671875,1.0986328125,-2.74658203125,-302.8719239373602,113.23947398611827,-126.87396405355932,1741601220.0942392
412,1,1,7,437,15,0.10986328125,0.9990234375,-0.10595703125,0.6103515625,0.9765625,-2.44140625,-281.9156915046177,107.2519790053347,-116.34283881754371,1741601220.1008012
413,1,1,7,452,15,0.09619140625,1.00341796875,-0.09716796875,0.67138671875,0.79345703125,-2.197265625,-283.4125652498136,111.74260024092237,-138.9095357518629,1741601220.1072516
414,1,1,7,467,15,0.109375,1.0029296875,-0.0927734375,0.30517578125,0.6103515625,-2.197265625,-290.89693397579305,116.23322147651005,-128.37841051584726,1741601220.113677
415,1,1,7,482,15,0.0986328125,1.00439453125,-0.08740234375,0.244140625,0.06103515625,-2.01416015625,-284.90943899500945,102.76135776974702,-126.87396405355932,1741601220.1205163
416,1,1,7,497,15,0.10009765625,1.0009765625,-0.095703125,0.18310546875,0.06103515625,-1.708984375,-281.9156915046177,107.2519790053347,-137.40508928957496,1741601220.1269069
417,1,1,7,512,15,0.10595703125,1.00244140625,-0.083984375,0.3662109375,0.42724609375,-1.708984375,-296.8844289565766,104.25823151494292,-141.9184286764388,1741601220.1333613
418,1,1,7,527,15,0.095703125,1.0009765625,-0.10009765625,0.48828125,0.48828125,-1.77001953125,-281.9156915046177,99.76761027935525,-137.40508928957496,1741601220.1397717
419,1,1,7,542,15,0.095703125,1.0048828125,-0.08984375,0.3662109375,0.48828125,-1.3427734375,-266.9469540526587,95.27698904376757,-132.89174990271113,1741601220.1461594
420,1,1,7,557,15,0.1025390625,1.00732421875,-0.10400390625,0.6103515625,0.54931640625,-1.0986328125,-293.8906814661848,104.25823151494292,-141.9184286764388,1741601220.1525757
421,1,1,7,572,15,0.09326171875,0.99609375,-0.09375,0.30517578125,0.54931640625,-0.91552734375,-278.92194401422586,108.7488527505306,-138.9095357518629,1741601220.1590967
422,1,1,7,587,15,0.0908203125,0.99755859375,-0.0888671875,0.3662109375,0.1220703125,-0.67138671875,-287.90318648540125,107.2519790053347,-143.42287513872674,1741601220.1657407
423,1,1,7,602,15,0.09814453125,0.99365234375,-0.1025390625,0.0,0.0,-0.3662109375,-287.90318648540125,107.2519790053347,-126.87396405355932,1741601220.172162
424,1,1,7,617,15,0.09716796875,1.0,-0.103515625,0.30517578125,0.0,-0.42724609375,-301.3750501921643,111.74260024092237,-138.9095357518629,1741601220.1785321
425,1,1,7,632,15,0.1005859375,0.99755859375,-0.10400390625,0.06103515625,0.0,-0.06103515625,-302.8719239373602,102.76135776974702,-129.8828569781352,1741601220.1849482
426,1,1,7,647,15,0.09716796875,0.99951171875,-0.10302734375,0.1220703125,0.0,0.1220703125,-290.89693397579305,111.74260024092237,-128.37841051584726,1741601220.2017863
427,1,1,7,662,15,0.09423828125,1.0048828125,-0.1025390625,0.1220703125,0.0,0.54931640625,-298.3813027017725,110.2457264957265,-137.40508928957496,1741601220.20816
428,1,1,7,677,15,0.09521484375,0.99853515625,-0.0947265625,0.06103515625,-0.244140625,0.244140625,-293.8906814661848,111.74260024092237,-144.92732160101465,1741601220.2147293
429,1,1,7,692,15,0.1025390625,0.9912109375,-0.10693359375,0.30517578125,-0.06103515625,0.91552734375,-286.40631274020535,116.23322147651005,-128.37841051584726,1741601220.2218747
430,1,1,7,707,15,0.0947265625,1.001953125,-0.109375,0.0,0.18310546875,0.91552734375,-290.89693397579305,108.7488527505306,-128.37841051584726,1741601220.2284865
431,1,1,7,722,15,0.099609375,1.00732421875,-0.087890625,0.0,0.0,0.91552734375,-293.8906814661848,116.23322147651005,-128.37841051584726,1741601220.234918
432,1,1,7,737,15,0.11083984375,0.99853515625,-0.0869140625,0.0,0.1220703125,1.220703125,-286.40631274020535,111.74260024092237,-141.9184286764388,1741601220.2426028
433,1,1,7,752,15,0.1025390625,0.99365234375,-0.10546875,-0.1220703125,-0.1220703125,1.220703125,-274.43132277863816,92.28324155337577,-129.8828569781352,1741601220.2489753
434,1,1,7,767,15,0.1064453125,1.00390625,-0.07958984375,-0.18310546875,-0.18310546875,1.40380859375,-281.9156915046177,107.2519790053347,-122.36062466669549,1741601220.2554042
435,1,1,7,782,15,0.1015625,0.9990234375,-0.095703125,-0.06103515625,-0.244140625,1.15966796875,-287.90318648540125,117.73009522170595,-137.40508928957496,1741601220.2618215
436,1,1,7,797,15,0.10302734375,1.00048828125,-0.08935546875,-0.06103515625,0.0,1.15966796875,-304.368797682556,104.25823151494292,-134.39619636499907,1741601220.2681887
437,1,1,7,812,15,0.10693359375,0.99365234375,-0.09765625,-0.06103515625,-0.06103515625,1.52587890625,-295.3875552113807,102.76135776974702,-126.87396405355932,1741601220.2747204
438,1,1,7,827,15,0.10302734375,0.99755859375,-0.107421875,-0.1220703125,0.0,1.40380859375,-281.9156915046177,110.2457264957265,-126.87396405355932,1741601220.2812562
439,1,1,7,842,15,0.09521484375,1.00146484375,-0.091796875,-0.18310546875,-0.06103515625,1.5869140625,-286.40631274020535,111.74260024092237,-120.85617820440754,1741601220.2876346
440,1,1,7,857,15,0.09912109375,1.0048828125,-0.1142578125,-0.30517578125,-0.3662109375,1.40380859375,-284.90943899500945,110.2457264957265,-132.89174990271113,1741601220.299604
441,1,1,7,872,15,0.103515625,0.9931640625,-0.10546875,-0.42724609375,-0.18310546875,1.52587890625,-293.8906814661848,111.74260024092237,-128.37841051584726,1741601220.3060136
442,1,1,7,887,15,0.109375,1.00732421875,-0.10302734375,-0.06103515625,-0.1220703125,1.28173828125,-274.43132277863816,107.2519790053347,-140.41398221415082,1741601220.3124278
443,1,1,7,902,15,0.11328125,1.0,-0.1015625,-0.3662109375,-0.1220703125,1.46484375,-283.4125652498136,111.74260024092237,-131.38730344042315,1741601220.3192048
444,1,1,7,917,15,0.11279296875,0.9970703125,-0.0859375,-0.18310546875,0.1220703125,1.15966796875,-284.90943899500945,107.2519790053347,-129.8828569781352,1741601220.325712
445,1,1,7,932,15,0.1064453125,1.00439453125,-0.09716796875,-0.244140625,0.3662109375,1.46484375,-286.40631274020535,108.7488527505306,-131.38730344042315,1741601220.3824754
446,1,1,7,947,15,0.1044921875,0.99853515625,-0.1015625,-0.1220703125,0.244140625,1.3427734375,-284.90943899500945,99.76761027935525,-137.40508928957496,1741601220.4046865
447,1,1,7,962,15,0.1064453125,1.0029296875,-0.0888671875,0.0,0.30517578125,1.40380859375,-293.8906814661848,98.27073653415934,-123.86507112898344,1741601220.4111497
448,1,1,7,977,15,0.107421875,1.00048828125,-0.1005859375,-0.18310546875,0.1220703125,1.40380859375,-301.3750501921643,122.22071645729363,-120.85617820440754,1741601220.4177458
449,1,1,7,992,15,0.099609375,1.0029296875,-0.103515625,-0.06103515625,0.0,1.46484375,-298.3813027017725,117.73009522170595,-140.41398221415082,1741601220.4241767
450,1,1,8,7,15,0.10791015625,1.00537109375,-0.10302734375,-0.3662109375,0.0,1.5869140625,-283.4125652498136,101.26448402455115,-123.86507112898344,1741601220.4960098
451,1,1,8,22,15,0.11962890625,1.00048828125,-0.09716796875,-0.1220703125,0.18310546875,1.953125,-290.89693397579305,108.7488527505306,-134.39619636499907,1741601220.5075681
452,1,1,8,37,15,0.1123046875,1.00830078125,-0.0947265625,-0.18310546875,0.0,2.13623046875,-301.3750501921643,104.25823151494292,-120.85617820440754,1741601220.5139847
453,1,1,8,52,15,0.11181640625,1.0068359375,-0.10595703125,-0.244140625,0.1220703125,2.0751953125,-296.8844289565766,108.7488527505306,-131.38730344042315,1741601220.520816
454,1,1,8,67,15,0.11328125,0.99951171875,-0.103515625,-0.18310546875,0.1220703125,2.13623046875,-283.4125652498136,93.78011529857167,-128.37841051584726,1741601220.5272102
455,1,1,8,82,15,0.115234375,0.9970703125,-0.09228515625,-0.30517578125,0.1220703125,1.953125,-296.8844289565766,108.7488527505306,-134.39619636499907,1741601220.5336223
456,1,1,8,97,15,0.11474609375,0.99462890625,-0.09130859375,-0.244140625,0.30517578125,2.197265625,-296.8844289565766,119.22696896690185,-123.86507112898344,1741601220.5400252
457,1,1,8,112,15,0.111328125,1.00244140625,-0.0771484375,-0.42724609375,0.0,2.13623046875,-301.3750501921643,104.25823151494292,-131.38730344042315,1741601220.546404
458,1,1,8,127,15,0.103515625,1.0048828125,-0.09375,-0.42724609375,-0.06103515625,2.50244140625,-277.42507026902996,107.2519790053347,-129.8828569781352,1741601220.552995
459,1,1,8,142,15,0.1142578125,0.9951171875,-0.0927734375,-0.30517578125,-0.42724609375,2.3193359375,-293.8906814661848,104.25823151494292,-128.37841051584726,1741601220.5594063
460,1,1,8,157,15,0.11962890625,1.0048828125,-0.0927734375,-0.3662109375,-0.54931640625,2.0751953125,-295.3875552113807,117.73009522170595,-126.87396405355932,1741601220.56578
461,1,1,8,172,15,0.107421875,0.998046875,-0.08251953125,-0.54931640625,-0.48828125,2.38037109375,-296.8844289565766,104.25823151494292,-123.86507112898344,1741601220.5721784
462,1,1,8,187,15,0.11474609375,0.99609375,-0.103515625,-0.3662109375,-0.30517578125,2.38037109375,-286.40631274020535,111.74260024092237,-131.38730344042315,1741601220.578572
463,1,1,8,202,15,0.12353515625,0.998046875,-0.08740234375,-0.42724609375,-0.18310546875,2.25830078125,-307.3625451729478,122.22071645729363,-123.86507112898344,1741601220.5901823
464,1,1,8,217,15,0.11474609375,1.001953125,-0.109375,-0.42724609375,-0.48828125,2.3193359375,-286.40631274020535,108.7488527505306,-138.9095357518629,1741601220.5965998
465,1,1,8,232,15,0.12255859375,1.00732421875,-0.10107421875,-0.42724609375,-0.30517578125,2.3193359375,-287.90318648540125,117.73009522170595,-126.87396405355932,1741601220.6030476
466,1,1,8,247,15,0.11962890625,0.99462890625,-0.095703125,-0.30517578125,-0.30517578125,2.3193359375,-290.89693397579305,116.23322147651005,-128.37841051584726,1741601220.6094415
467,1,1,8,262,15,0.10986328125,1.00244140625,-0.08984375,-0.42724609375,-0.18310546875,2.13623046875,-293.8906814661848,122.22071645729363,-131.38730344042315,1741601220.615818
468,1,1,8,277,15,0.109375,1.00341796875,-0.09765625,-0.3662109375,-0.42724609375,2.197265625,-281.9156915046177,110.2457264957265,-129.8828569781352,1741601220.6226225
469,1,1,8,292,15,0.11767578125,0.99658203125,-0.1005859375,-0.3662109375,-0.18310546875,2.13623046875,-286.40631274020535,104.25823151494292,-138.9095357518629,1741601220.6290028
470,1,1,8,307,15,0.12255859375,0.9970703125,-0.0947265625,-0.244140625,-0.244140625,2.01416015625,-293.8906814661848,111.74260024092237,-128.37841051584726,1741601220.63538
471,1,1,8,322,15,0.12646484375,0.99755859375,-0.091796875,-0.244140625,-0.06103515625,2.0751953125,-298.3813027017725,95.27698904376757,-108.82060650610397,1741601220.6417742
472,1,1,8,337,15,0.11767578125,0.994140625,-0.10107421875,-0.48828125,-0.42724609375,1.89208984375,-290.89693397579305,104.25823151494292,-128.37841051584726,1741601220.6481283
473,1,1,8,352,15,0.12646484375,0.99072265625,-0.0947265625,-0.30517578125,-0.54931640625,1.89208984375,-307.3625451729478,111.74260024092237,-123.86507112898344,1741601220.6545227
474,1,1,8,367,15,0.126953125,0.9951171875,-0.0947265625,-0.3662109375,-0.54931640625,1.8310546875,-296.8844289565766,108.7488527505306,-128.37841051584726,1741601220.6609128
475,1,1,8,382,15,0.12939453125,0.9990234375,-0.10498046875,-0.244140625,0.0,1.708984375,-305.8656714277519,102.76135776974702,-126.87396405355932,1741601220.6672738
476,1,1,8,397,15,0.13525390625,0.98486328125,-0.0986328125,-0.06103515625,0.0,1.5869140625,-293.8906814661848,122.22071645729363,-128.37841051584726,1741601220.6736581
477,1,1,8,412,15,0.1220703125,1.00244140625,-0.0751953125,-0.1220703125,0.42724609375,1.52587890625,-304.368797682556,104.25823151494292,-134.39619636499907,1741601220.680045
478,1,1,8,427,15,0.13134765625,0.99365234375,-0.09326171875,0.0,0.30517578125,1.40380859375,-292.39380772098895,113.23947398611827,-129.8828569781352,1741601220.697656
479,1,1,8,442,15,0.12109375,0.99853515625,-0.099609375,0.0,0.30517578125,1.52587890625,-298.3813027017725,102.76135776974702,-129.8828569781352,1741601220.704058
480,1,1,8,457,15,0.1123046875,1.00830078125,-0.1015625,0.0,0.1220703125,1.3427734375,-292.39380772098895,110.2457264957265,-129.8828569781352,1741601220.7104683
481,1,1,8,472,15,0.126953125,0.9951171875,-0.09130859375,0.0,-0.3662109375,1.64794921875,-296.8844289565766,119.22696896690185,-123.86507112898344,1741601220.7223897
482,1,1,8,487,15,0.1328125,1.001953125,-0.103515625,0.0,-0.48828125,1.77001953125,-287.90318648540125,110.2457264957265,-119.35173174211958,1741601220.7287538
483,1,1,8,502,15,0.12890625,0.9892578125,-0.10009765625,-0.1220703125,-0.79345703125,1.64794921875,-310.3562926633397,113.23947398611827,-116.34283881754371,1741601220.7351637
484,1,1,8,517,15,0.13427734375,0.9951171875,-0.072265625,0.0,-0.732421875,1.46484375,-290.89693397579305,116.23322147651005,-131.38730344042315,1741601220.7415407
485,1,1,8,532,15,0.12548828125,0.9990234375,-0.07958984375,-0.06103515625,-0.67138671875,1.28173828125,-296.8844289565766,108.7488527505306,-123.86507112898344,1741601220.7479126
486,1,1,8,547,15,0.13330078125,1.0,-0.0888671875,0.1220703125,-0.3662109375,1.03759765625,-301.3750501921643,111.74260024092237,-117.84728527983165,1741601220.7544012
487,1,1,8,562,15,0.130859375,0.99658203125,-0.08837890625,-0.18310546875,-0.6103515625,0.8544921875,-296.8844289565766,104.25823151494292,-123.86507112898344,1741601220.7608805
488,1,1,8,577,15,0.14306640625,0.998046875,-0.09326171875,0.18310546875,-0.3662109375,0.42724609375,-296.8844289565766,90.78636780817989,-134.39619636499907,1741601220.7728214
489,1,1,8,592,15,0.14404296875,1.0009765625,-0.0859375,0.3662109375,-0.06103515625,0.1220703125,-296.8844289565766,104.25823151494292,-134.39619636499907,1741601220.7791793
490,1,1,8,607,15,0.13525390625,0.98828125,-0.0947265625,0.1220703125,0.0,-0.06103515625,-281.9156915046177,107.2519790053347,-140.41398221415082,1741601220.7908716
491,1,1,8,622,15,0.12939453125,1.0068359375,-0.08837890625,0.30517578125,-0.30517578125,-0.18310546875,-293.8906814661848,111.74260024092237,-144.92732160101465,1741601220.7972555
492,1,1,8,637,15,0.1298828125,0.994140625,-0.09228515625,0.0,-0.48828125,-0.06103515625,-278.92194401422586,108.7488527505306,-131.38730344042315,1741601220.803662
493,1,1,8,652,15,0.134765625,0.99853515625,-0.08740234375,0.18310546875,-0.6103515625,-0.1220703125,-293.8906814661848,116.23322147651005,-128.37841051584726,1741601220.8101676
494,1,1,8,667,15,0.12548828125,0.99951171875,-0.099609375,0.30517578125,-0.67138671875,-0.48828125,-307.3625451729478,101.26448402455115,-134.39619636499907,1741601220.816558
495,1,1,8,682,15,0.13623046875,0.9990234375,-0.08740234375,0.3662109375,-0.3662109375,-0.8544921875,-311.85316640853557,101.26448402455115,-123.86507112898344,1741601220.8233778
496,1,1,8,697,15,0.1279296875,0.99853515625,-0.0859375,0.54931640625,0.1220703125,-0.8544921875,-304.368797682556,98.27073653415934,-138.9095357518629,1741601220.8297715
497,1,1,8,712,15,0.11962890625,0.9990234375,-0.09375,0.1220703125,-0.18310546875,-0.9765625,-287.90318648540125,120.72384271209773,-116.34283881754371,1741601220.8361356
498,1,1,8,727,15,0.1298828125,1.0048828125,-0.11376953125,0.0,-0.3662109375,-1.03759765625,-281.9156915046177,102.76135776974702,-122.36062466669549,1741601220.8476567
499,1,1,8,742,15,0.1259765625,1.0048828125,-0.0859375,0.0,-0.18310546875,-1.15966796875,-292.39380772098895,113.23947398611827,-126.87396405355932,1741601220.8540819
500,1,1,8,757,15,0.12744140625,0.99169921875,-0.07958984375,0.06103515625,-0.06103515625,-1.15966796875,-304.368797682556,116.23322147651005,-123.86507112898344,1741601220.860475
501,1,1,8,772,15,0.11865234375,0.99755859375,-0.0947265625,0.244140625,0.0,-1.28173828125,-284.90943899500945,102.76135776974702,-116.34283881754371,1741601220.8669064
502,1,1,8,787,15,0.1279296875,0.99755859375,-0.0947265625,0.06103515625,-0.42724609375,-1.0986328125,-292.39380772098895,120.72384271209773,-129.8828569781352,1741601220.8733118
503,1,1,8,802,15,0.119140625,1.0048828125,-0.091796875,0.244140625,-0.54931640625,-1.15966796875,-283.4125652498136,104.25823151494292,-123.86507112898344,1741601220.8797135
504,1,1,8,817,15,0.12939453125,0.998046875,-0.08447265625,0.3662109375,-0.3662109375,-1.28173828125,-290.89693397579305,111.74260024092237,-131.38730344042315,1741601220.9085922
505,1,1,8,832,15,0.12255859375,1.0009765625,-0.08056640625,0.54931640625,-0.1220703125,-1.40380859375,-298.3813027017725,120.72384271209773,-129.8828569781352,1741601220.9150312
506,1,1,8,847,15,0.1240234375,1.00537109375,-0.08642578125,0.67138671875,0.0,-1.52587890625,-281.9156915046177,113.23947398611827,-119.35173174211958,1741601220.9219234
507,1,1,8,862,15,0.13134765625,0.9970703125,-0.09228515625,0.67138671875,0.0,-1.77001953125,-283.4125652498136,104.25823151494292,-134.39619636499907,1741601220.9284148
508,1,1,8,877,15,0.11572265625,1.00341796875,-0.08642578125,0.54931640625,-0.06103515625,-1.708984375,-298.3813027017725,110.2457264957265,-132.89174990271113,1741601220.9399939
509,1,1,8,892,15,0.1240234375,1.00634765625,-0.107421875,0.67138671875,0.06103515625,-1.708984375,-298.3813027017725,107.2519790053347,-129.8828569781352,1741601220.9463649
510,1,1,8,907,15,0.12109375,1.0029296875,-0.08203125,0.79345703125,0.06103515625,-1.40380859375,-287.90318648540125,92.28324155337577,-129.8828569781352,1741601220.952754
511,1,1,8,922,15,0.12744140625,1.00048828125,-0.107421875,0.8544921875,0.0,-1.5869140625,-295.3875552113807,95.27698904376757,-137.40508928957496,1741601220.9591079
512,1,1,8,937,15,0.11962890625,1.00390625,-0.09521484375,0.8544921875,0.06103515625,-1.40380859375,-287.90318648540125,99.76761027935525,-137.40508928957496,1741601220.965491
513,1,1,8,952,15,0.1240234375,0.9970703125,-0.083984375,1.0986328125,0.06103515625,-1.46484375,-296.8844289565766,98.27073653415934,-128.37841051584726,1741601220.971894
514,1,1,8,967,15,0.1279296875,1.00244140625,-0.08984375,0.79345703125,-0.18310546875,-1.28173828125,-286.40631274020535,104.25823151494292,-128.37841051584726,1741601220.9782543
515,1,1,8,982,15,0.119140625,0.9931640625,-0.095703125,1.220703125,0.0,-1.3427734375,-272.9344490334423,101.26448402455115,-128.37841051584726,1741601220.9951231
516,1,1,8,997,15,0.125,0.99169921875,-0.09765625,0.91552734375,0.0,-1.28173828125,-302.8719239373602,110.2457264957265,-132.89174990271113,1741601221.0204895
517,1,1,9,12,15,0.11865234375,1.01123046875,-0.10498046875,1.28173828125,0.0,-1.40380859375,-295.3875552113807,107.2519790053347,-132.89174990271113,1741601221.0270739
518,1,1,9,27,15,0.12890625,1.00439453125,-0.09326171875,1.64794921875,0.06103515625,-1.52587890625,-304.368797682556,116.23322147651005,-134.39619636499907,1741601221.0388293
519,1,1,9,42,15,0.12548828125,1.00830078125,-0.11376953125,2.197265625,0.9765625,-1.708984375,-305.8656714277519,110.2457264957265,-126.87396405355932,1741601221.0452898
520,1,1,9,57,15,0.1611328125,0.98974609375,-0.1328125,5.67626953125,7.2021484375,-1.3427734375,-287.90318648540125,110.2457264957265,-129.8828569781352,1741601221.0870914
521,1,1,9,72,15,0.203125,0.986328125,-0.11279296875,11.3525390625,21.66748046875,-1.64794921875,-295.3875552113807,99.76761027935525,-137.40508928957496,1741601221.0940123
522,1,1,9,87,15,0.17236328125,1.01171875,-0.068359375,8.36181640625,27.03857421875,-4.69970703125,-281.9156915046177,99.76761027935525,-143.42287513872674,1741601221.1004367
523,1,1,9,102,15,0.18115234375,1.00537109375,-0.12109375,5.67626953125,24.5361328125,-9.58251953125,-301.3750501921643,108.7488527505306,-131.38730344042315,1741601221.1068034
524,1,1,9,117,15,0.201171875,0.9736328125,-0.09130859375,5.31005859375,23.193359375,-14.46533203125,-284.90943899500945,113.23947398611827,-132.89174990271113,1741601221.1132064
525,1,1,9,132,15,0.19580078125,0.99755859375,-0.046875,7.38525390625,22.76611328125,-20.1416015625,-293.8906814661848,111.74260024092237,-144.92732160101465,1741601221.119879
526,1,1,9,147,15,0.1611328125,1.00634765625,-0.029296875,9.58251953125,23.4375,-26.06201171875,-293.8906814661848,108.7488527505306,-134.39619636499907,1741601221.1262646
527,1,1,9,162,15,0.181640625,1.001953125,-0.02294921875,12.3291015625,22.64404296875,-33.0810546875,-292.39380772098895,102.76135776974702,-143.42287513872674,1741601221.1578665
528,1,1,9,177,15,0.1171875,1.0078125,-0.06298828125,15.31982421875,23.86474609375,-36.4990234375,-275.92819652383406,104.25823151494292,-134.39619636499907,1741601221.1643035
529,1,1,9,192,15,0.0908203125,1.00341796875,-0.09619140625,17.27294921875,21.42333984375,-38.87939453125,-272.9344490334423,104.25823151494292,-138.9095357518629,1741601221.170683
530,1,1,9,207,15,0.068359375,0.9638671875,-0.103515625,19.10400390625,17.4560546875,-39.36767578125,-256.4688378362875,128.2082114380772,-137.40508928957496,1741601221.1770382
531,1,1,9,222,15,0.0283203125,0.9560546875,-0.14990234375,20.5078125,16.05224609375,-37.9638671875,-263.953206562267,110.2457264957265,-146.43176806330263,1741601221.1834323
532,1,1,9,237,15,-0.07470703125,0.94287109375,-0.14794921875,20.81298828125,12.63427734375,-32.958984375,-275.92819652383406,111.74260024092237,-155.4584468370303,1741601221.1898232
533,1,1,9,252,15,-0.0859375,0.9482421875,-0.16015625,19.83642578125,6.34765625,-27.83203125,-268.4438277978546,111.74260024092237,-149.44066098787852,1741601221.1961784
534,1,1,9,267,15,0.00146484375,0.9541015625,-0.1435546875,21.240234375,-1.220703125,-22.0947265625,-275.92819652383406,101.26448402455115,-144.92732160101465,1741601221.2234726
535,1,1,9,282,15,-0.05224609375,0.99609375,-0.15478515625,21.240234375,-3.2958984375,-15.19775390625,-265.4500803074629,111.74260024092237,-152.4495539124544,1741601221.2298882
536,1,1,9,297,15,-0.05029296875,1.0185546875,-0.14404296875,20.751953125,-4.2724609375,-11.90185546875,-265.4500803074629,111.74260024092237,-149.44066098787852,1741601221.2736924
537,1,1,9,312,15,-0.03466796875,0.99755859375,-0.11376953125,21.05712890625,-4.94384765625,-8.85009765625,-268.4438277978546,108.7488527505306,-158.4673397616062,1741601221.2801049
538,1,1,9,327,15,0.052734375,1.00537109375,-0.12890625,21.8505859375,-5.4931640625,-7.26318359375,-266.9469540526587,110.2457264957265,-153.95400037474238,1741601221.28648
539,1,1,9,342,15,0.0419921875,1.01513671875,-0.24853515625,19.287109375,-8.056640625,-5.79833984375,-245.99072161991626,113.23947398611827,-153.95400037474238,1741601221.2942328
540,1,1,9,357,15,-0.0224609375,1.03857421875,-0.1650390625,16.7236328125,-12.3291015625,-5.4931640625,-253.4750903458957,107.2519790053347,-140.41398221415082,1741601221.300639
541,1,1,9,372,15,-0.03125,1.021484375,-0.12939453125,17.02880859375,-11.474609375,-5.0048828125,-265.4500803074629,108.7488527505306,-158.4673397616062,1741601221.3070018
542,1,1,9,387,15,-0.0185546875,0.986328125,-0.13525390625,17.2119140625,-9.1552734375,-4.69970703125,-269.9407015430505,120.72384271209773,-164.48512561075796,1741601221.3133967
543,1,1,9,402,15,-0.00439453125,0.9765625,-0.1904296875,18.49365234375,-4.33349609375,-3.5400390625,-256.4688378362875,113.23947398611827,-164.48512561075796,1741601221.3200738
544,1,1,9,417,15,0.0703125,0.9736328125,-0.287109375,15.56396484375,-5.0048828125,-3.2958984375,-250.48134285550393,122.22071645729363,-149.44066098787852,1741601221.3264487
545,1,1,9,432,15,-0.0087890625,1.03173828125,-0.2138671875,17.88330078125,-9.27734375,0.18310546875,-257.9657115814834,119.22696896690185,-155.4584468370303,1741601221.3329818
546,1,1,9,447,15,-0.0556640625,1.0322265625,-0.1826171875,18.73779296875,-15.5029296875,2.74658203125,-257.9657115814834,122.22071645729363,-155.4584468370303,1741601221.3393612
547,1,1,9,462,15,-0.03369140625,0.98876953125,-0.19873046875,18.310546875,-24.7802734375,3.72314453125,-265.4500803074629,104.25823151494292,-152.4495539124544,1741601221.3457637
548,1,1,9,477,15,0.04345703125,0.95556640625,-0.1640625,19.6533203125,-26.3671875,3.2958984375,-253.4750903458957,99.76761027935525,-153.95400037474238,1741601221.352152
549,1,1,9,492,15,0.10888671875,0.97900390625,-0.24267578125,20.263671875,-18.310546875,-0.1220703125,-250.48134285550393,108.7488527505306,-158.4673397616062,1741601221.3585258
550,1,1,9,507,15,0.11376953125,0.9638671875,-0.30419921875,19.34814453125,-10.80322265625,-3.90625,-257.9657115814834,111.74260024092237,-149.44066098787852,1741601221.3649232
551,1,1,9,522,15,0.0400390625,0.97607421875,-0.26904296875,18.61572265625,-6.40869140625,-5.37109375,-245.99072161991626,110.2457264957265,-156.96289329931824,1741601221.371311
552,1,1,9,537,15,0.00537109375,0.96484375,-0.2275390625,18.1884765625,-6.04248046875,-6.8359375,-256.4688378362875,102.76135776974702,-146.43176806330263,1741601221.3776767
553,1,1,9,552,15,-0.01025390625,0.95947265625,-0.22021484375,18.6767578125,-4.7607421875,-6.77490234375,-244.49384787472036,126.7113376928813,-152.4495539124544,1741601221.3840642
554,1,1,9,567,15,-0.02978515625,0.962890625,-0.251953125,17.63916015625,-1.0986328125,-6.04248046875,-248.98446911030803,107.2519790053347,-146.43176806330263,1741601221.3904848
555,1,1,9,582,15,-0.0078125,0.95654296875,-0.2978515625,15.07568359375,0.18310546875,-5.615234375,-242.99697412952446,113.23947398611827,-143.42287513872674,1741601221.39688
556,1,1,9,597,15,0.06787109375,0.95947265625,-0.32861328125,13.61083984375,0.0,-6.04248046875,-250.48134285550393,116.23322147651005,-149.44066098787852,1741601221.4032824
557,1,1,9,612,15,0.04345703125,0.99853515625,-0.2900390625,13.12255859375,2.685546875,-6.2255859375,-245.99072161991626,125.21446394768543,-153.95400037474238,1741601221.410027
558,1,1,9,627,15,0.0283203125,1.0,-0.2861328125,11.3525390625,3.11279296875,-7.38525390625,-247.48759536511216,119.22696896690185,-149.44066098787852,1741601221.416405
559,1,1,9,642,15,0.01025390625,0.98681640625,-0.2578125,10.8642578125,0.9765625,-6.8359375,-254.9719640910916,122.22071645729363,-149.44066098787852,1741601221.4229455
560,1,1,9,657,15,0.00732421875,0.982421875,-0.2509765625,10.25390625,-0.8544921875,-7.2021484375,-250.48134285550393,119.22696896690185,-152.4495539124544,1741601221.5882845
561,1,1,9,672,15,0.0009765625,0.98193359375,-0.24609375,10.55908203125,-1.953125,-7.38525390625,-245.99072161991626,125.21446394768543,-153.95400037474238,1741601221.8599036
562,1,1,9,687,15,-0.00927734375,1.00830078125,-0.2333984375,10.8642578125,-2.685546875,-7.99560546875,-245.99072161991626,113.23947398611827,-156.96289329931824,1741601222.0058215
563,1,1,9,702,15,-0.03173828125,1.03271484375,-0.25830078125,10.7421875,-4.45556640625,-7.38525390625,-245.99072161991626,120.72384271209773,-153.95400037474238,1741601222.0122492
564,1,1,9,717,15,-0.01806640625,1.021484375,-0.27490234375,10.43701171875,-6.89697265625,-7.38525390625,-242.99697412952446,128.2082114380772,-156.96289329931824,1741601222.0191257
565,1,1,9,732,15,-0.02099609375,1.01171875,-0.2900390625,9.58251953125,-8.60595703125,-7.14111328125,-245.99072161991626,128.2082114380772,-164.48512561075796,1741601222.0424228
566,1,1,9,747,15,-0.0458984375,1.01123046875,-0.27783203125,8.72802734375,-10.92529296875,-6.103515625,-231.02198416795733,128.2082114380772,-146.43176806330263,1741601222.048785
567,1,1,9,762,15,-0.0380859375,0.994140625,-0.30224609375,7.2021484375,-14.09912109375,-5.31005859375,-242.99697412952446,110.2457264957265,-153.95400037474238,1741601222.1386342
568,1,1,9,777,15,-0.07568359375,0.99853515625,-0.27099609375,6.591796875,-15.68603515625,-3.90625,-245.99072161991626,120.72384271209773,-161.4762326861821,1741601222.1450665
569,1,1,9,792,15,-0.064453125,0.9736328125,-0.27099609375,5.4931640625,-16.54052734375,-2.99072265625,-229.5251104227614,122.22071645729363,-141.9184286764388,1741601222.1514614
570,1,1,9,807,15,-0.0439453125,0.96044921875,-0.26904296875,5.37109375,-17.39501953125,-2.197265625,-245.99072161991626,117.73009522170595,-143.42287513872674,1741601222.1578248
571,1,1,9,822,15,-0.03466796875,0.9541015625,-0.2822265625,4.94384765625,-17.08984375,-2.197265625,-235.512605403545,125.21446394768543,-156.96289329931824,1741601222.164217
572,1,1,9,837,15,-0.06982421875,0.947265625,-0.2412109375,4.69970703125,-17.4560546875,-2.38037109375,-219.0469942063902,126.7113376928813,-128.37841051584726,1741601222.1706173
573,1,1,9,852,15,-0.041015625,0.912109375,-0.25732421875,4.33349609375,-18.98193359375,-3.7841796875,-240.00322663913266,122.22071645729363,-144.92732160101465,1741601222.1769838
574,1,1,9,867,15,-0.06005859375,0.904296875,-0.25341796875,5.9814453125,-20.263671875,-5.79833984375,-244.49384787472036,119.22696896690185,-141.9184286764388,1741601222.1834042
575,1,1,9,882,15,-0.048828125,0.93115234375,-0.2236328125,8.36181640625,-22.0947265625,-7.26318359375,-228.02823667756553,120.72384271209773,-137.40508928957496,1741601222.1898267
576,1,1,9,897,15,0.05908203125,0.935546875,-0.2890625,8.6669921875,-24.2919921875,-9.70458984375,-245.99072161991626,120.72384271209773,-132.89174990271113,1741601222.1962032
577,1,1,9,912,15,0.08154296875,0.92333984375,-0.3564453125,10.07080078125,-18.00537109375,-13.36669921875,-237.0094791487409,122.22071645729363,-131.38730344042315,1741601222.2026176
578,1,1,9,927,15,-0.001953125,0.9423828125,-0.3515625,10.009765625,-7.9345703125,-16.2353515625,-238.50635289393676,125.21446394768543,-156.96289329931824,1741601222.2090049
579,1,1,9,942,15,-0.060546875,0.9326171875,-0.31884765625,9.09423828125,-7.2021484375,-17.39501953125,-237.0094791487409,116.23322147651005,-131.38730344042315,1741601222.215404
580,1,1,9,957,15,-0.111328125,0.92724609375,-0.29345703125,9.46044921875,-10.6201171875,-17.2119140625,-238.50635289393676,128.2082114380772,-129.8828569781352,1741601222.222014
581,1,1,9,972,15,-0.126953125,0.95556640625,-0.2734375,9.521484375,-14.34326171875,-15.44189453125,-231.02198416795733,131.201958928469,-137.40508928957496,1741601222.2284052
582,1,1,9,987,15,-0.05419921875,0.962890625,-0.31982421875,6.9580078125,-16.2353515625,-14.34326171875,-228.02823667756553,125.21446394768543,-122.36062466669549,1741601222.2348135
583,1,1,10,2,15,-0.04296875,0.97021484375,-0.35498046875,6.591796875,-12.5732421875,-14.09912109375,-235.512605403545,125.21446394768543,-132.89174990271113,1741601222.2469077
584,1,1,10,17,15,-0.04638671875,0.98388671875,-0.34326171875,4.39453125,-8.23974609375,-14.22119140625,-234.0157316583491,126.7113376928813,-134.39619636499907,1741601222.2533307
585,1,1,10,32,15,-0.09033203125,0.97314453125,-0.3251953125,3.23486328125,-5.7373046875,-13.73291015625,-244.49384787472036,122.22071645729363,-138.9095357518629,1741601222.2597275
586,1,1,10,47,15,-0.1123046875,0.986328125,-0.30712890625,2.86865234375,-6.8359375,-12.75634765625,-223.53761544197786,129.7050851832731,-141.9184286764388,1741601222.266077
587,1,1,10,62,15,-0.1064453125,0.9658203125,-0.32861328125,1.28173828125,-8.85009765625,-12.20703125,-217.5501204611943,128.2082114380772,-126.87396405355932,1741601222.2724771
588,1,1,10,77,15,-0.0859375,0.95361328125,-0.37548828125,-0.67138671875,-9.09423828125,-12.0849609375,-229.5251104227614,134.1957064188608,-134.39619636499907,1741601222.2788496
589,1,1,10,92,15,-0.09228515625,0.9501953125,-0.38623046875,-3.0517578125,-8.97216796875,-11.77978515625,-226.53136293236963,134.1957064188608,-131.38730344042315,1741601222.2861266
590,1,1,10,107,15,-0.10791015625,0.94384765625,-0.36962890625,-4.82177734375,-9.46044921875,-11.3525390625,-225.03448918717373,125.21446394768543,-132.89174990271113,1741601222.2980456
591,1,1,10,122,15,-0.1318359375,0.92919921875,-0.3515625,-7.01904296875,-9.21630859375,-10.6201171875,-220.54386795158607,138.68632765444846,-137.40508928957496,1741601222.3044732
592,1,1,10,137,15,-0.13818359375,0.91162109375,-0.35498046875,-9.09423828125,-9.033203125,-9.6435546875,-228.02823667756553,128.2082114380772,-108.82060650610397,1741601222.3108666
593,1,1,10,152,15,-0.14697265625,0.916015625,-0.30615234375,-10.6201171875,-9.3994140625,-8.544921875,-220.54386795158607,131.201958928469,-119.35173174211958,1741601222.3172781
594,1,1,10,167,15,-0.16845703125,0.888671875,-0.2890625,-13.00048828125,-8.60595703125,-7.6904296875,-219.0469942063902,122.22071645729363,-123.86507112898344,1741601222.3237016
595,1,1,10,182,15,-0.17724609375,0.82763671875,-0.2978515625,-15.869140625,-6.16455078125,-8.30078125,-214.5563729708025,128.2082114380772,-129.8828569781352,1741601222.3300834
596,1,1,10,197,15,-0.10400390625,0.78564453125,-0.33837890625,-15.68603515625,-2.01416015625,-10.43701171875,-219.0469942063902,129.7050851832731,-128.37841051584726,1741601222.4703155
597,1,1,10,212,15,-0.1171875,0.896484375,-0.3173828125,-15.07568359375,0.9765625,-10.43701171875,-226.53136293236963,137.18945390925256,-131.38730344042315,1741601222.476687
598,1,1,10,227,15,-0.11572265625,0.98583984375,-0.23486328125,-13.61083984375,-0.30517578125,-11.962890625,-211.5626254804107,144.67382263523203,-128.37841051584726,1741601222.4830928
599,1,1,10,242,15,-0.0390625,1.060546875,-0.18115234375,-13.18359375,-2.8076171875,-15.7470703125,-211.5626254804107,134.1957064188608,-123.86507112898344,1741601222.8590477
600,1,1,10,257,15,-0.03369140625,1.1083984375,-0.14697265625,-9.82666015625,-0.732421875,-20.20263671875,-214.5563729708025,131.201958928469,-122.36062466669549,1741601222.8654828
601,1,1,10,272,15,-0.04296875,1.07666015625,-0.16162109375,-6.591796875,2.44140625,-24.658203125,-219.0469942063902,129.7050851832731,-117.84728527983165,1741601222.8769927
602,1,1,10,287,15,-0.109375,1.052734375,-0.23779296875,-4.8828125,3.41796875,-26.67236328125,-216.05324671599837,134.1957064188608,-110.32505296839192,1741601222.8834057
603,1,1,10,302,15,-0.13818359375,1.009765625,-0.2841796875,-4.638671875,3.662109375,-27.099609375,-220.54386795158607,120.72384271209773,-137.40508928957496,1741601222.8949523
604,1,1,10,317,15,-0.23486328125,0.99560546875,-0.3291015625,-5.0048828125,-0.79345703125,-23.5595703125,-211.5626254804107,134.1957064188608,-120.85617820440754,1741601222.9013858
605,1,1,10,332,15,-0.20849609375,0.95068359375,-0.34619140625,-7.2021484375,-5.18798828125,-18.61572265625,-204.07825675443127,135.69258016405666,-122.36062466669549,1741601222.9078465
606,1,1,10,347,15,-0.23486328125,0.94091796875,-0.3369140625,-9.82666015625,-7.568359375,-12.5732421875,-207.07200424482303,131.201958928469,-111.82949943067986,1741601222.9143918
607,1,1,10,362,15,-0.248046875,0.93115234375,-0.2861328125,-12.39013671875,-5.79833984375,-6.53076171875,-205.57513049962714,140.18320139964433,-123.86507112898344,1741601222.9211285
608,1,1,10,377,15,-0.25390625,0.92578125,-0.2080078125,-12.51220703125,-4.08935546875,-1.220703125,-204.07825675443127,131.201958928469,-129.8828569781352,1741601222.9275405
609,1,1,10,392,15,-0.234375,0.935546875,-0.177734375,-11.8408203125,-2.01416015625,2.62451171875,-214.5563729708025,125.21446394768543,-129.8828569781352,1741601222.9339504
610,1,1,10,407,15,-0.17626953125,0.96728515625,-0.1884765625,-10.43701171875,1.89208984375,5.0048828125,-210.0657517352148,128.2082114380772,-116.34283881754371,1741601222.9403536
611,1,1,10,422,15,-0.18798828125,0.95849609375,-0.228515625,-10.1318359375,3.96728515625,6.40869140625,-207.07200424482303,125.21446394768543,-119.35173174211958,1741601222.9467397
612,1,1,10,437,15,-0.16455078125,0.94091796875,-0.251953125,-9.8876953125,3.7841796875,7.14111328125,-216.05324671599837,134.1957064188608,-117.84728527983165,1741601222.9533143
613,1,1,10,452,15,-0.1669921875,0.94140625,-0.24365234375,-9.70458984375,1.03759765625,7.99560546875,-225.03448918717373,149.16444387081972,-132.89174990271113,1741601222.9597323
614,1,1,10,467,15,-0.17041015625,0.935546875,-0.23779296875,-9.3994140625,-1.3427734375,8.4228515625,-205.57513049962714,129.7050851832731,-117.84728527983165,1741601222.966109
615,1,1,10,482,15,-0.13671875,0.935546875,-0.2177734375,-9.033203125,-1.28173828125,8.30078125,-214.5563729708025,131.201958928469,-116.34283881754371,1741601222.9725099
616,1,1,10,497,15,-0.126953125,0.94775390625,-0.19677734375,-7.9345703125,2.13623046875,8.60595703125,-217.5501204611943,146.17069638042793,-129.8828569781352,1741601222.9788933
617,1,1,10,512,15,-0.15576171875,0.97998046875,-0.18603515625,-5.92041015625,7.01904296875,9.1552734375,-214.5563729708025,143.17694889003613,-119.35173174211958,1741601222.9853015
618,1,1,10,527,15,-0.1767578125,0.99169921875,-0.17724609375,-4.94384765625,11.3525390625,10.43701171875,-207.07200424482303,135.69258016405666,-122.36062466669549,1741601223.4996724
619,1,1,10,542,15,-0.2138671875,1.0107421875,-0.21875,-5.06591796875,11.90185546875,13.00048828125,-207.07200424482303,131.201958928469,-122.36062466669549,1741601223.5060606
620,1,1,10,557,15,-0.212890625,1.00634765625,-0.24365234375,-6.40869140625,7.99560546875,16.54052734375,-225.03448918717373,128.2082114380772,-122.36062466669549,1741601223.5124512
621,1,1,10,572,15,-0.1865234375,0.990234375,-0.2822265625,-6.8359375,2.74658203125,20.44677734375,-210.0657517352148,131.201958928469,-111.82949943067986,1741601223.5190563
622,1,1,10,587,15,-0.20703125,0.97802734375,-0.2685546875,-8.36181640625,-3.23486328125,24.35302734375,-219.0469942063902,116.23322147651005,-134.39619636499907,1741601223.5257661
623,1,1,10,602,15,-0.1875,0.96435546875,-0.23681640625,-9.3994140625,-8.85009765625,26.85546875,-223.53761544197786,137.18945390925256,-134.39619636499907,1741601223.5321765
624,1,1,10,617,15,-0.15380859375,0.9560546875,-0.24169921875,-9.1552734375,-13.48876953125,29.1748046875,-220.54386795158607,120.72384271209773,-116.34283881754371,1741601223.538604
625,1,1,10,632,15,-0.1005859375,0.96728515625,-0.2314453125,-8.6669921875,-15.9912109375,30.09033203125,-220.54386795158607,143.17694889003613,-105.81171358152808,1741601223.5449963
626,1,1,10,647,15,-0.0771484375,0.96923828125,-0.22216796875,-7.4462890625,-15.68603515625,28.9306640625,-226.53136293236963,134.1957064188608,-120.85617820440754,1741601223.5515223
627,1,1,10,662,15,-0.03173828125,0.978515625,-0.216796875,-4.2724609375,-11.65771484375,26.85546875,-229.5251104227614,129.7050851832731,-128.37841051584726,1741601223.557873
628,1,1,10,677,15,-0.0029296875,0.9697265625,-0.20556640625,-2.25830078125,-9.46044921875,23.681640625,-237.0094791487409,140.18320139964433,-123.86507112898344,1741601223.5655458
629,1,1,10,692,15,0.0107421875,0.962890625,-0.20751953125,-2.0751953125,-10.92529296875,16.90673828125,-220.54386795158607,135.69258016405666,-122.36062466669549,1741601223.597564
630,1,1,10,707,15,0.0009765625,0.9794921875,-0.19580078125,0.244140625,-13.85498046875,9.70458984375,-229.5251104227614,126.7113376928813,-120.85617820440754,1741601223.6040184
631,1,1,10,722,15,-0.03369140625,1.0107421875,-0.17578125,3.23486328125,-17.76123046875,3.96728515625,-229.5251104227614,122.22071645729363,-110.32505296839192,1741601223.6104503
632,1,1,10,737,15,-0.06640625,0.9951171875,-0.17041015625,4.94384765625,-22.0947265625,0.54931640625,-235.512605403545,128.2082114380772,-116.34283881754371,1741601223.6170928
633,1,1,10,752,15,-0.13037109375,0.9404296875,-0.1767578125,5.7373046875,-27.28271484375,-0.9765625,-237.0094791487409,126.7113376928813,-120.85617820440754,1741601223.6235256
634,1,1,10,767,15,-0.1865234375,0.93212890625,-0.16748046875,6.89697265625,-31.67724609375,-0.6103515625,-234.0157316583491,137.18945390925256,-110.32505296839192,1741601223.629923
635,1,1,10,782,15,-0.154296875,0.9287109375,-0.18701171875,6.53076171875,-33.26416015625,2.01416015625,-244.49384787472036,134.1957064188608,-128.37841051584726,1741601223.636561
636,1,1,10,797,15,-0.08935546875,0.92724609375,-0.16357421875,9.09423828125,-30.76171875,4.94384765625,-235.512605403545,143.17694889003613,-95.28058834551246,1741601223.6534562
637,1,1,10,812,15,0.001953125,0.94189453125,-0.224609375,11.3525390625,-22.705078125,6.40869140625,-242.99697412952446,149.16444387081972,-111.82949943067986,1741601223.6599016
638,1,1,10,827,15,-0.05908203125,0.97705078125,-0.18017578125,11.5966796875,-10.7421875,7.01904296875,-245.99072161991626,138.68632765444846,-108.82060650610397,1741601223.6662774
639,1,1,10,842,15,-0.05078125,0.96044921875,-0.21044921875,11.474609375,-2.8076171875,7.568359375,-237.0094791487409,147.66757012562383,-99.7939277323763,1741601223.672695
640,1,1,10,857,15,-0.095703125,0.9677734375,-0.2060546875,13.00048828125,1.40380859375,9.46044921875,-242.99697412952446,138.68632765444846,-98.28948127008834,1741601223.6790733
641,1,1,10,872,15,-0.0908203125,0.96435546875,-0.2421875,13.73291015625,2.01416015625,12.20703125,-248.98446911030803,138.68632765444846,-87.75835603407272,1741601223.6856303
642,1,1,10,887,15,-0.109375,0.96435546875,-0.20263671875,14.2822265625,0.06103515625,15.56396484375,-234.0157316583491,129.7050851832731,-107.31616004381601,1741601223.6920424
643,1,1,10,902,15,-0.095703125,0.95751953125,-0.2548828125,13.61083984375,1.52587890625,19.47021484375,-237.0094791487409,137.18945390925256,-104.30726711924014,1741601223.6985364
644,1,1,10,917,15,-0.20654296875,0.96630859375,-0.27490234375,12.451171875,2.0751953125,24.90234375,-228.02823667756553,131.201958928469,-87.75835603407272,1741601223.7051377
645,1,1,10,932,15,-0.20068359375,0.90185546875,-0.19482421875,10.8642578125,-0.67138671875,30.70068359375,-254.9719640910916,134.1957064188608,-99.7939277323763,1741601223.7115567
646,1,1,10,947,15,-0.0849609375,0.92138671875,-0.2216796875,10.009765625,2.13623046875,34.11865234375,-245.99072161991626,125.21446394768543,-105.81171358152808,1741601223.7179708
647,1,1,10,962,15,-0.07861328125,0.982421875,-0.22265625,9.46044921875,9.521484375,36.376953125,-247.48759536511216,137.18945390925256,-107.31616004381601,1741601223.7243857
648,1,1,10,977,15,-0.1171875,1.021484375,-0.18359375,8.97216796875,13.916015625,38.75732421875,-237.0094791487409,134.1957064188608,-93.77614188322451,1741601223.7307858
649,1,1,10,992,15,-0.06494140625,1.06005859375,-0.3154296875,6.65283203125,11.3525390625,39.97802734375,-257.9657115814834,119.22696896690185,-114.83839235525575,1741601223.7371461
650,1,1,11,7,15,-0.04248046875,1.1142578125,-0.36962890625,3.2958984375,6.04248046875,40.6494140625,-254.9719640910916,126.7113376928813,-107.31616004381601,1741601223.7435455
651,1,1,11,22,15,-0.0146484375,1.05615234375,-0.40869140625,-3.2958984375,0.0,41.748046875,-259.4625853266793,128.2082114380772,-102.80282065695218,1741601223.749941
652,1,1,11,37,15,-0.0322265625,0.98974609375,-0.44970703125,-10.19287109375,-4.21142578125,42.724609375,-259.4625853266793,131.201958928469,-98.28948127008834,1741601223.7565045
653,1,1,11,52,15,0.01220703125,0.98046875,-0.400390625,-16.78466796875,-4.33349609375,44.49462890625,-248.98446911030803,135.69258016405666,-111.82949943067986,1741601224.2614276
654,1,1,11,67,15,0.01416015625,1.02392578125,-0.369140625,-23.4375,-3.23486328125,46.44775390625,-257.9657115814834,111.74260024092237,-107.31616004381601,1741601224.2678144
655,1,1,11,82,15,0.03759765625,1.0048828125,-0.30126953125,-30.1513671875,-2.01416015625,47.9736328125,-263.953206562267,117.73009522170595,-98.28948127008834,1741601224.2742262
656,1,1,11,97,15,0.06884765625,0.98291015625,-0.29052734375,-34.85107421875,1.708984375,48.03466796875,-269.9407015430505,117.73009522170595,-108.82060650610397,1741601224.2806342
657,1,1,11,112,15,0.0546875,1.00732421875,-0.2890625,-37.841796875,6.7138671875,48.64501953125,-269.9407015430505,110.2457264957265,-98.28948127008834,1741601224.2869997
658,1,1,11,127,15,0.056640625,0.99951171875,-0.23193359375,-40.52734375,9.21630859375,50.6591796875,-277.42507026902996,113.23947398611827,-105.81171358152808,1741601224.293402
659,1,1,11,142,15,0.04931640625,0.95703125,-0.162109375,-39.85595703125,11.29150390625,54.01611328125,-274.43132277863816,117.73009522170595,-98.28948127008834,1741601224.2998092
660,1,1,11,157,15,0.1083984375,0.93603515625,-0.1357421875,-37.90283203125,15.0146484375,55.2978515625,-292.39380772098895,117.73009522170595,-108.82060650610397,1741601224.3061738
661,1,1,11,172,15,0.1328125,0.9599609375,-0.130859375,-36.0107421875,18.1884765625,54.26025390625,-292.39380772098895,120.72384271209773,-92.27169542093657,1741601224.312688
662,1,1,11,187,15,0.12939453125,0.974609375,-0.1240234375,-35.09521484375,18.98193359375,53.1005859375,-286.40631274020535,122.22071645729363,-93.77614188322451,1741601224.3194263
663,1,1,11,202,15,0.25927734375,0.9296875,-0.20458984375,-34.912109375,18.5546875,50.537109375,-307.3625451729478,108.7488527505306,-110.32505296839192,1741601224.3258076
664,1,1,11,217,15,0.22265625,0.94384765625,-0.130859375,-33.38623046875,22.94921875,46.630859375,-302.8719239373602,107.2519790053347,-116.34283881754371,1741601224.3322122
665,1,1,11,232,15,0.1328125,0.962890625,-0.0771484375,-32.04345703125,22.216796875,41.93115234375,-295.3875552113807,92.28324155337577,-122.36062466669549,1741601224.3385792
666,1,1,11,247,15,0.2294921875,0.97705078125,-0.04833984375,-30.517578125,14.58740234375,42.29736328125,-305.8656714277519,95.27698904376757,-98.28948127008834,1741601224.3450098
667,1,1,11,262,15,0.28125,0.96142578125,-0.05517578125,-28.6865234375,13.18359375,36.43798828125,-316.3437876441232,92.28324155337577,-98.28948127008834,1741601224.3880975
668,1,1,11,277,15,0.29736328125,0.982421875,-0.06689453125,-27.7099609375,17.9443359375,31.005859375,-314.8469138989273,98.27073653415934,-90.76724895864861,1741601224.394505
669,1,1,11,292,15,0.25244140625,0.9755859375,-0.08984375,-27.587890625,24.0478515625,25.634765625,-320.8344088797109,113.23947398611827,-92.27169542093657,1741601224.400877
670,1,1,11,307,15,0.26171875,0.99072265625,-0.12255859375,-29.052734375,26.55029296875,22.03369140625,-317.8406613893191,101.26448402455115,-114.83839235525575,1741601224.4072225
671,1,1,11,322,15,0.1865234375,0.9912109375,-0.12890625,-31.005859375,24.10888671875,21.6064453125,-322.3312826249068,108.7488527505306,-104.30726711924014,1741601224.4135983
672,1,1,11,337,15,0.2373046875,1.00146484375,-0.11328125,-33.02001953125,19.22607421875,20.01953125,-334.3062725864739,92.28324155337577,-102.80282065695218,1741601224.420269
673,1,1,11,352,15,0.21630859375,0.99658203125,-0.12158203125,-35.82763671875,18.9208984375,21.54541015625,-325.32503011529855,119.22696896690185,-104.30726711924014,1741601224.4266222
674,1,1,11,367,15,0.19384765625,0.99755859375,-0.107421875,-37.78076171875,19.8974609375,22.0947265625,-325.32503011529855,93.78011529857167,-117.84728527983165,1741601224.432999
675,1,1,11,382,15,0.21484375,0.98486328125,-0.08203125,-39.73388671875,18.85986328125,24.23095703125,-335.80314633166984,93.78011529857167,-104.30726711924014,1741601224.4393444
676,1,1,11,397,15,0.2109375,0.97607421875,-0.0703125,-42.1142578125,16.78466796875,25.146484375,-337.30002007686574,102.76135776974702,-95.28058834551246,1741601224.4532714
677,1,1,11,412,15,0.23583984375,0.97900390625,-0.07666015625,-44.3115234375,11.71875,26.06201171875,-341.7906413124534,81.80512533700454,-84.74946310949683,1741601224.469723
678,1,1,11,427,15,0.2880859375,0.95947265625,-0.0087890625,-45.8984375,10.55908203125,27.28271484375,-325.32503011529855,104.25823151494292,-104.30726711924014,1741601224.4761896
679,1,1,11,442,15,0.28125,0.978515625,-0.01220703125,-47.66845703125,13.5498046875,27.587890625,-346.28126254804107,101.26448402455115,-96.7850348078004,1741601224.4825962
680,1,1,11,457,15,0.26513671875,0.96533203125,0.01025390625,-49.01123046875,16.17431640625,28.62548828125,-344.78438880284517,78.81137784661274,-105.81171358152808,1741601224.4889755
681,1,1,11,472,15,0.25244140625,0.98681640625,0.06396484375,-50.048828125,14.95361328125,30.3955078125,-335.80314633166984,80.30825159180864,-90.76724895864861,1741601224.4953895
682,1,1,11,487,15,0.26220703125,1.0185546875,0.068359375,-52.490234375,13.0615234375,31.43310546875,-349.27501003843287,84.79887282739631,-102.80282065695218,1741601224.501792
683,1,1,11,502,15,0.26904296875,1.029296875,-0.06201171875,-56.5185546875,11.8408203125,31.55517578125,-340.29376756725753,75.81763035622096,-110.32505296839192,1741601224.5081692
684,1,1,11,517,15,0.3173828125,0.9853515625,-0.0322265625,-59.63134765625,5.9814453125,33.3251953125,-353.7656312740205,90.78636780817989,-83.24501664720889,1741601224.5145903
685,1,1,11,532,15,0.33203125,0.94189453125,0.056640625,-61.1572265625,2.62451171875,34.72900390625,-350.77188378362877,75.81763035622096,-93.77614188322451,1741601224.5213819
686,1,1,11,547,15,0.357421875,0.96240234375,0.0751953125,-62.43896484375,-0.48828125,34.24072265625,-346.28126254804107,75.81763035622096,-93.77614188322451,1741601225.0091746
687,1,1,11,562,15,0.37158203125,0.95068359375,0.1005859375,-61.82861328125,0.30517578125,32.28759765625,-346.28126254804107,72.82388286582916,-75.72278433576916,1741601225.0155807
688,1,1,11,577,15,0.3662109375,0.9013671875,0.14453125,-60.72998046875,3.23486328125,30.517578125,-364.2437474903918,65.33951413984971,-69.70499848661737,1741601225.0222776
689,1,1,11,592,15,0.37451171875,0.88916015625,0.18505859375,-57.373046875,4.69970703125,28.4423828125,-352.2687575288246,71.32700912063329,-63.68721263746558,1741601225.2322962
690,1,1,11,607,15,0.3828125,0.89990234375,0.26171875,-55.60302734375,7.50732421875,26.0009765625,-371.72811621637123,75.81763035622096,-65.19165909975354,1741601225.2386696
691,1,1,11,622,15,0.384765625,0.91943359375,0.1982421875,-52.91748046875,12.451171875,24.23095703125,-377.71561119715483,84.79887282739631,-63.68721263746558,1741601225.2450817
692,1,1,11,637,15,0.36181640625,0.89453125,0.2236328125,-52.30712890625,15.93017578125,23.25439453125,-364.2437474903918,57.85514541387024,-65.19165909975354,1741601225.2514715
693,1,1,11,652,15,0.35205078125,0.8525390625,0.20361328125,-51.025390625,16.66259765625,23.5595703125,-364.2437474903918,80.30825159180864,-56.164980326025855,1741601225.2578404
694,1,1,11,667,15,0.3505859375,0.8759765625,0.2763671875,-50.537109375,13.12255859375,24.2919921875,-383.70310617793837,60.84889290426203,-53.156087401449966,1741601225.2696123
695,1,1,11,682,15,0.4482421875,0.876953125,0.27880859375,-49.31640625,13.36669921875,23.01025390625,-362.74687374519584,71.32700912063329,-60.678319712889696,1741601225.281346
696,1,1,11,697,15,0.44580078125,0.84912109375,0.3037109375,-46.81396484375,17.51708984375,19.95849609375,-370.23124247117534,63.84264039465382,-50.14719447687407,1741601225.2877312
697,1,1,11,712,15,0.4072265625,0.8564453125,0.3349609375,-43.64013671875,18.98193359375,17.51708984375,-373.22498996156713,56.358271668674355,-60.678319712889696,1741601225.2941535
698,1,1,11,727,15,0.4189453125,0.89453125,0.33935546875,-40.71044921875,18.24951171875,15.68603515625,-382.20623243274247,62.345766649457914,-56.164980326025855,1741601225.3005607
699,1,1,11,742,15,0.44873046875,0.90576171875,0.310546875,-38.0859375,21.17919921875,13.00048828125,-389.6906011587219,57.85514541387024,-56.164980326025855,1741601225.3069446
