Processed,Time(h),Time(m),Time(s),Time(ms),Delt,AccX,AccY,AccZ,GyroX,GyroY,GyroZ,MagX,MagY,MagZ,PCTimestamp
1,1,1,1,573,3661573,-0.041015625,1.00244140625,-0.0654296875,-1.220703125,-0.91552734375,0.1220703125,-214.5563729708025,-686.0911059484885,79.2352012798893,1745594339.9149225
2,1,1,1,588,15,-0.03955078125,1.00634765625,-0.083984375,-1.0986328125,-1.0986328125,0.18310546875,-240.00322663913266,-666.6317472609419,67.19962958158573,1745594339.9214394
3,1,1,1,603,15,-0.04248046875,0.9951171875,-0.0791015625,-1.28173828125,-1.8310546875,0.0,-244.49384787472036,-677.1098634773132,77.73075481760137,1745594340.0225294
4,1,1,1,618,15,-0.04541015625,1.0029296875,-0.060546875,-1.220703125,-2.197265625,0.18310546875,-237.0094791487409,-677.1098634773132,80.73964774217725,1745594340.0292692
5,1,1,1,633,15,-0.03857421875,1.00439453125,-0.0654296875,-1.28173828125,-2.44140625,0.06103515625,-231.02198416795733,-675.6129897321173,65.6951831192978,1745594340.035786
6,1,1,1,648,15,-0.0400390625,1.00830078125,-0.0654296875,-1.15966796875,-2.86865234375,0.06103515625,-244.49384787472036,-677.1098634773132,77.73075481760137,1745594340.0422354
7,1,1,1,663,15,-0.0400390625,1.0078125,-0.06396484375,-0.9765625,-3.0517578125,0.0,-245.99072161991626,-686.0911059484885,73.21741543073752,1745594340.0487216
8,1,1,1,678,15,-0.04052734375,1.00341796875,-0.06787109375,-0.91552734375,-2.50244140625,-0.06103515625,-253.4750903458957,-689.0848534388803,76.2263083553134,1745594340.1062453
9,1,1,1,693,15,-0.0400390625,0.99951171875,-0.07421875,-1.0986328125,-2.50244140625,0.30517578125,-237.0094791487409,-692.078600929272,70.20852250616163,1745594340.1199765
10,1,1,1,708,15,-0.03564453125,1.0068359375,-0.06689453125,-1.3427734375,-2.3193359375,0.06103515625,-242.99697412952446,-689.0848534388803,76.2263083553134,1745594340.1303883
11,1,1,1,723,15,-0.03369140625,1.00341796875,-0.0693359375,-1.28173828125,-2.3193359375,0.0,-242.99697412952446,-686.0911059484885,82.2440942044652,1745594340.1373236
12,1,1,1,738,15,-0.04296875,1.00830078125,-0.0625,-1.3427734375,-2.3193359375,0.18310546875,-238.50635289393676,-675.6129897321173,73.21741543073752,1745594340.143807
13,1,1,1,753,15,-0.03759765625,1.001953125,-0.06103515625,-1.28173828125,-1.89208984375,-0.1220703125,-245.99072161991626,-693.575474674468,89.76632651590494,1745594340.1503336
14,1,1,1,768,15,-0.03955078125,1.00537109375,-0.07861328125,-1.40380859375,-1.46484375,-0.1220703125,-237.0094791487409,-692.078600929272,67.19962958158573,1745594340.1672955
15,1,1,1,783,15,-0.025390625,1.00390625,-0.0654296875,-1.15966796875,-1.46484375,-0.1220703125,-240.00322663913266,-687.5879796936844,67.19962958158573,1745594340.1737902
16,1,1,1,798,15,-0.0419921875,1.00244140625,-0.07275390625,-1.3427734375,-1.52587890625,-0.30517578125,-242.99697412952446,-683.0973584580967,73.21741543073752,1745594340.1904914
17,1,1,1,813,15,-0.03857421875,1.00537109375,-0.068359375,-1.03759765625,-1.77001953125,-0.54931640625,-244.49384787472036,-666.6317472609419,80.73964774217725,1745594340.1970353
18,1,1,1,828,15,-0.04541015625,0.99365234375,-0.05078125,-1.03759765625,-1.953125,-0.54931640625,-242.99697412952446,-686.0911059484885,79.2352012798893,1745594340.2034972
19,1,1,1,843,15,-0.0283203125,1.00830078125,-0.060546875,-1.03759765625,-1.64794921875,-0.8544921875,-240.00322663913266,-684.5942322032926,70.20852250616163,1745594340.2099898
20,1,1,1,858,15,-0.04248046875,1.0166015625,-0.0625,-1.0986328125,-1.8310546875,-1.40380859375,-247.48759536511216,-695.0723484196639,61.18184373243395,1745594340.2165256
21,1,1,1,873,15,-0.04931640625,1.01513671875,-0.05078125,-1.0986328125,-1.708984375,-0.8544921875,-248.98446911030803,-689.0848534388803,82.2440942044652,1745594340.2229822
22,1,1,1,888,15,-0.04443359375,1.0107421875,-0.0615234375,-0.8544921875,-2.44140625,-0.54931640625,-244.49384787472036,-684.5942322032926,56.668504345570106,1745594340.2296977
23,1,1,1,903,15,-0.0400390625,0.99658203125,-0.0615234375,-0.91552734375,-2.74658203125,0.06103515625,-238.50635289393676,-689.0848534388803,62.68629019472189,1745594340.5186963
24,1,1,1,918,15,-0.0380859375,0.9951171875,-0.05712890625,-0.30517578125,-1.64794921875,0.30517578125,-253.4750903458957,-686.0911059484885,82.2440942044652,1745594341.2270417
25,1,1,1,933,15,-0.0498046875,1.00048828125,-0.0634765625,0.1220703125,-0.18310546875,0.8544921875,-247.48759536511216,-687.5879796936844,67.19962958158573,1745594341.244949
26,1,1,1,948,15,-0.05126953125,1.0166015625,-0.05908203125,0.42724609375,0.54931640625,1.40380859375,-240.00322663913266,-684.5942322032926,64.19073665700984,1745594341.6475222
27,1,1,1,963,15,-0.06396484375,1.017578125,-0.0673828125,0.732421875,-0.3662109375,3.0517578125,-237.0094791487409,-695.0723484196639,77.73075481760137,1745594341.653985
28,1,1,1,978,15,-0.064453125,1.0185546875,-0.08837890625,0.48828125,-1.953125,4.5166015625,-242.99697412952446,-683.0973584580967,79.2352012798893,1745594341.6604488
29,1,1,1,993,15,-0.05126953125,1.00341796875,-0.087890625,-0.42724609375,-4.39453125,5.615234375,-254.9719640910916,-687.5879796936844,53.659611420994224,1745594341.672059
30,1,1,2,8,15,-0.04345703125,1.00830078125,-0.08154296875,-0.79345703125,-6.04248046875,5.859375,-234.0157316583491,-695.0723484196639,70.20852250616163,1745594341.6785293
31,1,1,2,23,15,0.0009765625,1.005859375,-0.07177734375,-0.8544921875,-5.67626953125,5.0048828125,-242.99697412952446,-683.0973584580967,68.70407604387367,1745594341.6849568
32,1,1,2,38,15,0.001953125,1.0009765625,-0.07958984375,-0.91552734375,-3.47900390625,3.23486328125,-245.99072161991626,-675.6129897321173,73.21741543073752,1745594341.8024604
33,1,1,2,53,15,-0.00048828125,1.00732421875,-0.07421875,-0.8544921875,-1.77001953125,1.64794921875,-238.50635289393676,-678.6067372225091,65.6951831192978,1745594341.814149
34,1,1,2,68,15,-0.01806640625,1.00927734375,-0.0703125,-1.220703125,-1.15966796875,0.3662109375,-229.5251104227614,-702.5567171456432,74.72186189302546,1745594341.8259327
35,1,1,2,83,15,-0.0068359375,1.009765625,-0.08056640625,-1.220703125,-2.99072265625,-0.48828125,-231.02198416795733,-689.0848534388803,73.21741543073752,1745594341.8324208
36,1,1,2,98,15,-0.03515625,1.01416015625,-0.080078125,-0.9765625,-1.89208984375,-0.42724609375,-240.00322663913266,-680.103610967705,74.72186189302546,1745594341.9191594
37,1,1,2,113,15,-0.0478515625,0.99462890625,-0.0703125,-1.3427734375,-3.173828125,0.0,-229.5251104227614,-684.5942322032926,64.19073665700984,1745594341.9756062
38,1,1,2,128,15,-0.04736328125,0.9775390625,-0.08251953125,0.1220703125,0.9765625,0.91552734375,-240.00322663913266,-687.5879796936844,74.72186189302546,1745594341.9820669
39,1,1,2,143,15,-0.00048828125,0.96240234375,-0.0908203125,2.38037109375,10.25390625,2.0751953125,-240.00322663913266,-687.5879796936844,64.19073665700984,1745594341.9885423
40,1,1,2,158,15,0.04052734375,0.99853515625,-0.1025390625,7.2021484375,34.97314453125,5.9814453125,-228.02823667756553,-696.5692221648598,68.70407604387367,1745594341.994988
41,1,1,2,173,15,-0.03857421875,1.01171875,-0.08154296875,0.54931640625,26.4892578125,1.15966796875,-234.0157316583491,-687.5879796936844,74.72186189302546,1745594342.001481
42,1,1,2,188,15,-0.00537109375,1.0361328125,-0.07666015625,-3.41796875,16.29638671875,-3.35693359375,-248.98446911030803,-686.0911059484885,79.2352012798893,1745594342.0079465
43,1,1,2,203,15,-0.02783203125,1.0693359375,-0.0517578125,-5.67626953125,7.62939453125,-8.85009765625,-242.99697412952446,-696.5692221648598,76.2263083553134,1745594342.014379
44,1,1,2,218,15,0.01220703125,1.0498046875,-0.0361328125,-6.65283203125,2.99072265625,-13.48876953125,-242.99697412952446,-689.0848534388803,89.76632651590494,1745594342.0208488
45,1,1,2,233,15,0.00830078125,1.04052734375,-0.08203125,-7.50732421875,1.953125,-18.98193359375,-240.00322663913266,-687.5879796936844,70.20852250616163,1745594342.0274954
46,1,1,2,248,15,0.05712890625,1.04736328125,-0.11279296875,-10.7421875,-2.25830078125,-25.5126953125,-247.48759536511216,-687.5879796936844,98.7930052896326,1745594342.0393677
47,1,1,2,263,15,0.09033203125,1.07861328125,-0.14599609375,-14.70947265625,-6.103515625,-35.09521484375,-245.99072161991626,-689.0848534388803,82.2440942044652,1745594342.045851
48,1,1,2,278,15,0.13916015625,1.08056640625,-0.107421875,-18.9208984375,-6.7138671875,-46.69189453125,-253.4750903458957,-686.0911059484885,92.77521944048081,1745594342.1823037
49,1,1,2,293,15,0.1005859375,1.12548828125,-0.1044921875,-22.15576171875,-6.4697265625,-59.02099609375,-265.4500803074629,-677.1098634773132,85.25298712904109,1745594342.1888497
50,1,1,2,308,15,0.11474609375,1.15234375,-0.12646484375,-25.5126953125,-5.43212890625,-72.021484375,-259.4625853266793,-683.0973584580967,92.77521944048081,1745594342.1953175
51,1,1,2,323,15,0.03759765625,1.25341796875,-0.0927734375,-28.01513671875,-4.69970703125,-83.3740234375,-253.4750903458957,-671.1223684965296,92.77521944048081,1745594342.2018213
52,1,1,2,338,15,-0.0244140625,1.45556640625,-0.13427734375,-28.4423828125,-7.9345703125,-95.21484375,-293.8906814661848,-680.103610967705,88.26188005361698,1745594342.208459
53,1,1,2,353,15,0.12353515625,1.56005859375,-0.05712890625,-30.1513671875,-13.0615234375,-102.96630859375,-275.92819652383406,-663.6379997705501,85.25298712904109,1745594342.2149022
54,1,1,2,368,15,0.0693359375,1.595703125,-0.10400390625,-26.9775390625,-13.24462890625,-111.572265625,-290.89693397579305,-656.1536310445706,85.25298712904109,1745594342.2214208
55,1,1,2,383,15,0.19873046875,1.6845703125,0.07373046875,-30.94482421875,-25.08544921875,-118.408203125,-295.3875552113807,-642.6817673378076,76.2263083553134,1745594342.2436283
56,1,1,2,398,15,0.26416015625,1.5693359375,0.1455078125,-36.7431640625,-20.93505859375,-119.56787109375,-314.8469138989273,-638.1911461022199,67.19962958158573,1745594342.2501311
57,1,1,2,413,15,0.22265625,1.38671875,0.07958984375,-38.6962890625,-5.0048828125,-123.1689453125,-332.809398841278,-645.6755148281993,80.73964774217725,1745594342.2565985
58,1,1,2,428,15,0.10302734375,1.22119140625,0.01025390625,-39.85595703125,24.4140625,-118.71337890625,-323.82815637010265,-611.2474186886939,82.2440942044652,1745594342.2630513
59,1,1,2,443,15,-0.1953125,0.9404296875,-0.19287109375,-32.1044921875,61.58447265625,-108.642578125,-350.77188378362877,-576.8193225491883,77.73075481760137,1745594342.2695591
60,1,1,2,458,15,0.16943359375,0.62109375,-0.5146484375,-15.380859375,57.12890625,-81.6650390625,-341.7906413124534,-572.3287013136006,110.82857698793617,1745594342.2762609
61,1,1,2,473,15,0.59619140625,0.49072265625,-0.33837890625,-5.37109375,9.09423828125,-43.39599609375,-352.2687575288246,-560.3537113520335,100.29745175192055,1745594342.2885292
62,1,1,2,488,15,0.65869140625,0.5068359375,-0.07666015625,-5.9814453125,-18.1884765625,-8.6669921875,-334.3062725864739,-539.397478919291,110.82857698793617,1745594342.2962065
63,1,1,2,503,15,0.52294921875,0.373046875,-0.07470703125,2.74658203125,-31.67724609375,26.0009765625,-335.80314633166984,-540.8943526644869,115.34191637480001,1745594342.3032453
64,1,1,2,518,15,0.61865234375,0.3876953125,-0.0986328125,12.02392578125,-48.27880859375,64.697265625,-301.3750501921643,-522.9318677221362,88.26188005361698,1745594342.3107038
65,1,1,2,533,15,0.57080078125,0.44287109375,0.00341796875,18.06640625,-48.40087890625,96.98486328125,-286.40631274020535,-548.3787213904662,98.7930052896326,1745594342.3183818
66,1,1,2,548,15,0.5087890625,0.5576171875,0.01318359375,22.4609375,-41.259765625,126.77001953125,-238.50635289393676,-542.3912264096828,97.28855882734466,1745594342.325535
67,1,1,2,563,15,0.41064453125,0.67529296875,-0.01220703125,28.4423828125,-28.25927734375,156.73828125,-229.5251104227614,-540.8943526644869,101.80189821420849,1745594342.3332355
68,1,1,2,578,15,0.28857421875,0.8427734375,0.0087890625,33.69140625,-18.12744140625,180.60302734375,-178.63140308610107,-536.4037314288992,100.29745175192055,1745594342.4539108
69,1,1,2,593,15,0.18408203125,0.9951171875,0.0595703125,36.2548828125,-11.53564453125,198.54736328125,-162.16579188894625,-522.9318677221362,98.7930052896326,1745594342.4604132
70,1,1,2,608,15,0.0615234375,1.15771484375,0.1083984375,37.353515625,-2.86865234375,207.8857421875,-123.24707451385304,-504.9693827797854,101.80189821420849,1745594342.4668982
71,1,1,2,623,15,-0.13818359375,1.29052734375,0.13623046875,37.17041015625,15.2587890625,207.8857421875,-75.34711466758446,-500.47876154419777,100.29745175192055,1745594342.4733605
72,1,1,2,638,15,-0.3564453125,1.3896484375,0.11328125,35.7666015625,35.70556640625,201.904296875,-42.41589227327482,-463.05691791430047,109.32413052564823,1745594342.4799407
73,1,1,2,653,15,-0.52001953125,1.42138671875,0.03759765625,31.31103515625,54.62646484375,189.94140625,-24.45340733092411,-455.57254918832103,125.87304161081563,1745594342.4864666
74,1,1,2,668,15,-0.70556640625,1.41162109375,-0.0166015625,26.91650390625,74.52392578125,171.20361328125,-0.5034274077898239,-416.6538318132278,115.34191637480001,1745594342.4929166
75,1,1,2,683,15,-0.98291015625,1.35986328125,-0.06689453125,23.8037109375,96.3134765625,145.5078125,9.974688808581426,-368.75387196695925,119.85525576166384,1745594342.4994063
76,1,1,2,698,15,-1.18505859375,1.25634765625,-0.107421875,23.4375,96.0693359375,115.478515625,24.943426260540353,-353.78513451500027,127.37748807310358,1745594342.5058935
77,1,1,2,713,15,-1.318359375,1.123046875,-0.0888671875,23.62060546875,79.65087890625,85.9375,23.44655251534446,-347.7976395342167,157.4664173188625,1745594342.5176713
78,1,1,2,728,15,-1.41845703125,1.05517578125,-0.0634765625,22.03369140625,42.90771484375,49.560546875,30.930921241323926,-308.8789221591235,146.93529208284687,1745594342.524128
79,1,1,2,743,15,-1.4130859375,1.00146484375,-0.02783203125,20.08056640625,-5.37109375,15.19775390625,32.42779498651982,-295.4070584523605,137.9086133091192,1745594342.5307384
80,1,1,2,758,15,-1.1669921875,0.95361328125,0.046875,15.13671875,-51.08642578125,-14.22119140625,35.421542476911604,-307.3820484139276,148.43973854513484,1745594342.537221
81,1,1,2,773,15,-0.7265625,0.88330078125,0.08837890625,8.544921875,-68.17626953125,-35.58349609375,47.396532438478744,-292.4133109619687,155.96197085657457,1745594342.54366
82,1,1,2,788,15,0.19580078125,0.6455078125,-0.30615234375,2.9296875,-52.79541015625,-41.93115234375,44.40278494808696,-290.9164372167728,149.94418500742276,1745594342.550158
83,1,1,2,803,15,1.8720703125,0.85302734375,-1.306640625,32.28759765625,36.43798828125,3.60107421875,32.42779498651982,-295.4070584523605,151.4486314697107,1745594342.5566583
84,1,1,2,818,15,0.59326171875,2.1767578125,0.4033203125,8.23974609375,47.18017578125,-22.94921875,32.42779498651982,-299.89767968794814,134.8997203845433,1745594342.563094
85,1,1,2,833,15,-0.65576171875,1.93798828125,0.51806640625,2.38037109375,60.1806640625,-60.1806640625,50.390279928870534,-295.4070584523605,166.49309609259018,1745594342.570034
86,1,1,2,848,15,-0.19384765625,1.142578125,0.01171875,12.51220703125,34.912109375,-52.67333984375,38.415289967303394,-290.9164372167728,157.4664173188625,1745594342.5765784
87,1,1,2,863,15,-0.0078125,0.75146484375,0.0869140625,13.61083984375,4.2724609375,-39.1845703125,42.90591120289107,-289.4195634715769,155.96197085657457,1745594342.5830848
88,1,1,2,878,15,-0.361328125,1.1513671875,0.12109375,16.6015625,-20.3857421875,-38.4521484375,33.924668731715705,-280.4383210004015,160.4753102434384,1745594342.5895991
89,1,1,2,893,15,0.07080078125,1.029296875,-0.10205078125,19.71435546875,-39.0625,-28.9306640625,24.943426260540353,-292.4133109619687,161.97975670572634,1745594342.5960834
90,1,1,2,908,15,0.13134765625,0.9501953125,-0.19580078125,23.0712890625,-15.380859375,-17.578125,24.943426260540353,-284.9289422359892,155.96197085657457,1745594342.6025162
91,1,1,2,923,15,0.14404296875,0.9482421875,-0.25048828125,21.728515625,-7.38525390625,-16.54052734375,27.937173750932143,-293.9101847071646,149.94418500742276,1745594342.6089923
92,1,1,2,938,15,0.08447265625,1.03076171875,-0.2041015625,18.00537109375,-9.033203125,-17.27294921875,18.955931279756783,-302.8914271783399,172.51088194174199,1745594342.6208062
93,1,1,2,953,15,0.08056640625,1.01806640625,-0.10302734375,16.54052734375,-4.39453125,-14.22119140625,21.949678770148566,-295.4070584523605,158.97086378115046,1745594342.6273441
94,1,1,2,968,15,0.17236328125,0.99169921875,-0.10302734375,18.00537109375,5.4931640625,-14.404296875,33.924668731715705,-304.3883009235358,174.0153284040299,1745594342.6337972
95,1,1,2,983,15,0.19482421875,0.9912109375,-0.16943359375,16.05224609375,9.94873046875,-19.22607421875,20.452805024952678,-298.40080594275224,163.4842031680143,1745594342.6513078
96,1,1,2,998,15,0.2373046875,1.02734375,-0.21337890625,16.11328125,16.845703125,-25.81787109375,24.943426260540353,-302.8914271783399,161.97975670572634,1745594342.6578128
97,1,1,3,13,15,0.14697265625,1.01318359375,-0.21337890625,12.75634765625,14.404296875,-31.18896484375,20.452805024952678,-293.9101847071646,171.006435479454,1745594342.6642778
98,1,1,3,28,15,0.13720703125,1.009765625,-0.2001953125,8.4228515625,5.55419921875,-37.59765625,12.968436298973211,-304.3883009235358,163.4842031680143,1745594342.67077
99,1,1,3,43,15,0.2138671875,0.9912109375,-0.201171875,4.150390625,2.685546875,-44.49462890625,14.465310044169106,-292.4133109619687,172.51088194174199,1745594342.7190948
100,1,1,3,58,15,0.16259765625,0.99658203125,-0.1865234375,1.52587890625,4.2724609375,-50.23193359375,12.968436298973211,-304.3883009235358,181.53756071546965,1745594342.7256017
101,1,1,3,73,15,0.07080078125,1.0185546875,-0.17333984375,-0.54931640625,2.8076171875,-54.38232421875,12.968436298973211,-308.8789221591235,171.006435479454,1745594342.7320807
102,1,1,3,88,15,-0.041015625,1.03369140625,-0.15185546875,-2.62451171875,-4.21142578125,-55.23681640625,-7.9877961337692875,-304.3883009235358,174.0153284040299,1745594342.7543232
103,1,1,3,103,15,-0.046875,1.03173828125,-0.125,-3.41796875,-11.962890625,-53.03955078125,-0.5034274077898239,-293.9101847071646,157.4664173188625,1745594342.760829
104,1,1,3,118,15,-0.0771484375,1.041015625,-0.1376953125,-3.41796875,-19.95849609375,-50.78125,-0.5034274077898239,-308.8789221591235,174.0153284040299,1745594342.7673168
105,1,1,3,133,15,-0.06298828125,1.05078125,-0.14111328125,-3.84521484375,-28.13720703125,-47.119140625,-7.9877961337692875,-293.9101847071646,167.99754255487815,1745594342.7737637
106,1,1,3,148,15,-0.07470703125,1.04638671875,-0.12939453125,-3.35693359375,-29.84619140625,-44.49462890625,-9.48466987896518,-295.4070584523605,155.96197085657457,1745594342.780262
107,1,1,3,163,15,-0.08984375,1.01220703125,-0.1083984375,-2.197265625,-28.99169921875,-41.44287109375,0.9934463374060689,-313.36954339471123,166.49309609259018,1745594342.7867763
108,1,1,3,178,15,-0.099609375,0.9931640625,-0.13037109375,-1.220703125,-25.2685546875,-39.12353515625,-12.478417369356967,-313.36954339471123,158.97086378115046,1745594342.7932322
109,1,1,3,193,15,-0.0693359375,1.044921875,-0.13818359375,-0.9765625,-24.71923828125,-38.14697265625,-12.478417369356967,-317.86016463029887,166.49309609259018,1745594342.7997358
110,1,1,3,208,15,-0.087890625,1.0615234375,-0.150390625,-1.953125,-24.10888671875,-37.04833984375,-16.969038604944643,-329.835154591866,171.006435479454,1745594342.8062055
111,1,1,3,223,15,-0.0751953125,1.02490234375,-0.15576171875,-2.62451171875,-23.62060546875,-37.29248046875,-9.48466987896518,-317.86016463029887,161.97975670572634,1745594342.812671
112,1,1,3,238,15,-0.0986328125,1.05078125,-0.1748046875,-5.43212890625,-23.13232421875,-37.9638671875,-18.465912350140538,-320.85391212069067,158.97086378115046,1745594342.8296824
113,1,1,3,253,15,-0.0908203125,1.06982421875,-0.18701171875,-9.09423828125,-25.7568359375,-40.95458984375,-30.44090231170768,-320.85391212069067,169.50198901716607,1745594342.8362021
114,1,1,3,268,15,-0.0283203125,1.0986328125,-0.22021484375,-10.19287109375,-32.65380859375,-43.88427734375,-16.969038604944643,-329.835154591866,167.99754255487815,1745594342.8426914
115,1,1,3,283,15,-0.04150390625,1.09912109375,-0.15966796875,-11.71875,-36.68212890625,-49.13330078125,-21.45965984053232,-329.835154591866,160.4753102434384,1745594342.849227
116,1,1,3,298,15,-0.0185546875,1.1201171875,-0.15283203125,-15.44189453125,-33.38623046875,-55.48095703125,-30.44090231170768,-320.85391212069067,145.43084562055893,1745594342.860828
117,1,1,3,313,15,-0.0615234375,1.1728515625,-0.1533203125,-18.37158203125,-31.31103515625,-60.97412109375,-22.956533585728216,-325.3445333562783,155.96197085657457,1745594342.8673465
118,1,1,3,328,15,-0.06982421875,1.1533203125,-0.18603515625,-20.01953125,-32.28759765625,-64.75830078125,-36.428397292491255,-313.36954339471123,151.4486314697107,1745594342.8738081
119,1,1,3,343,15,-0.06396484375,1.14208984375,-0.15185546875,-22.4609375,-33.8134765625,-69.64111328125,-34.931523547295356,-334.32577582745364,149.94418500742276,1745594342.8803098
120,1,1,3,358,15,-0.04736328125,1.11962890625,-0.14599609375,-25.634765625,-34.66796875,-74.40185546875,-36.428397292491255,-343.30701829862903,137.9086133091192,1745594342.8868048
121,1,1,3,373,15,-0.05517578125,1.1357421875,-0.1005859375,-29.84619140625,-32.77587890625,-81.4208984375,-43.91276601847071,-331.3320283370619,145.43084562055893,1745594342.8932686
122,1,1,3,388,15,-0.04296875,1.13525390625,-0.11767578125,-33.50830078125,-28.99169921875,-89.111328125,-52.89400848964607,-340.3132708082373,139.41305977140715,1745594342.904903
123,1,1,3,403,15,-0.03466796875,1.1650390625,-0.12939453125,-37.2314453125,-25.20751953125,-98.69384765625,-54.39088223484197,-335.82264957264954,137.9086133091192,1745594342.9114056
124,1,1,3,418,15,-0.01513671875,1.203125,-0.130859375,-40.58837890625,-24.90234375,-110.3515625,-69.3596196868009,-331.3320283370619,137.9086133091192,1745594342.9178865
125,1,1,3,433,15,0.0791015625,1.29638671875,-0.14013671875,-46.69189453125,-26.55029296875,-125.1220703125,-63.37212470601732,-326.8414071014742,133.39527392225537,1745594342.9456887
126,1,1,3,448,15,0.216796875,1.55908203125,-0.21875,-59.5703125,-18.37158203125,-143.61572265625,-82.83148339356393,-331.3320283370619,124.36859514852769,1745594342.952563
127,1,1,3,463,15,0.2216796875,1.67333984375,-0.32177734375,-62.92724609375,-17.76123046875,-158.69140625,-85.82523088395571,-343.30701829862903,134.8997203845433,1745594342.959096
128,1,1,3,478,15,0.22265625,1.7216796875,-0.33349609375,-57.7392578125,-37.65869140625,-170.71533203125,-103.78771582630642,-317.86016463029887,116.84636283708795,1745594342.9655838
129,1,1,3,493,15,0.283203125,1.80859375,-0.330078125,-53.1005859375,-65.91796875,-178.5888671875,-112.76895829748179,-322.3507858658865,125.87304161081563,1745594342.9720378
130,1,1,3,508,15,0.6142578125,1.65380859375,-0.14404296875,-46.44775390625,-99.67041015625,-178.3447265625,-127.7376957494407,-311.87266964951533,109.32413052564823,1745594342.9785328
131,1,1,3,523,15,0.2333984375,1.458984375,0.12060546875,-43.88427734375,-98.69384765625,-174.86572265625,-124.74394825904892,-317.86016463029887,121.3597022239518,1745594342.9849904
132,1,1,3,538,15,-0.45751953125,1.677734375,0.2626953125,-58.65478515625,-65.673828125,-187.07275390625,-136.71893822061608,-307.3820484139276,113.83746991251206,1745594342.9914794
133,1,1,3,553,15,-0.24853515625,1.52783203125,-0.02392578125,-48.583984375,-6.2255859375,-184.5703125,-148.6939281821832,-301.394553433144,122.86414868623974,1745594342.9979835
134,1,1,3,568,15,-0.322265625,1.16259765625,-0.3388671875,-31.31103515625,36.0107421875,-152.52685546875,-147.19705443698734,-289.4195634715769,113.83746991251206,1745594343.0152137
135,1,1,3,583,15,-0.28564453125,0.93212890625,-0.5224609375,-27.34375,12.451171875,-128.84521484375,-157.67517065335855,-281.93519474559736,121.3597022239518,1745594343.0220537
136,1,1,3,598,15,-0.3330078125,0.6904296875,-0.28076171875,-16.29638671875,-6.2255859375,-81.9091796875,-153.18454941777088,-256.4883410772673,113.83746991251206,1745594343.0285974
137,1,1,3,613,15,-0.0556640625,0.541015625,-0.099609375,-20.56884765625,-21.91162109375,-54.3212890625,-171.1470343601216,-260.97896231285495,131.89082745996743,1745594343.0351012
138,1,1,3,628,15,0.39404296875,0.39111328125,-0.00048828125,-19.53125,-30.517578125,-8.9111328125,-172.64390810531748,-247.5070986060919,136.40416684683126,1745594343.041567
139,1,1,3,643,15,0.4189453125,0.25537109375,0.083984375,-16.90673828125,-18.5546875,28.1982421875,-172.64390810531748,-251.99771984167958,133.39527392225537,1745594343.0481095
140,1,1,3,658,15,0.23876953125,0.095703125,0.11767578125,0.0,15.380859375,57.0068359375,-169.6501606149257,-240.02272988011242,122.86414868623974,1745594343.054556
141,1,1,3,673,15,0.01220703125,0.181640625,0.07421875,7.568359375,27.77099609375,77.5146484375,-171.1470343601216,-217.56962370217403,134.8997203845433,1745594343.0610504
142,1,1,3,688,15,0.0400390625,0.17724609375,0.0029296875,10.3759765625,37.04833984375,114.1357421875,-181.62515057649284,-220.56337119256582,124.36859514852769,1745594343.0736213
143,1,1,3,703,15,0.2060546875,0.24755859375,-0.0029296875,12.939453125,42.78564453125,148.8037109375,-178.63140308610107,-196.61339126943153,142.42195269598304,1745594343.0853631
144,1,1,3,718,15,0.220703125,0.37890625,-0.03955078125,14.0380859375,59.75341796875,181.94580078125,-177.13452934090517,-183.1415275626685,143.926399158271,1745594343.0918205
145,1,1,3,733,15,0.11474609375,0.4931640625,-0.0390625,14.0380859375,61.4013671875,211.0595703125,-163.66266563414214,-189.12902254345207,148.43973854513484,1745594343.0983322
146,1,1,3,748,15,0.02685546875,0.59814453125,-0.095703125,16.6015625,53.28369140625,234.0087890625,-151.687675672575,-165.1790426203178,160.4753102434384,1745594343.105221
147,1,1,3,763,15,-0.0859375,0.8046875,-0.1171875,20.8740234375,42.54150390625,252.86865234375,-159.17204439855445,-157.69467389433834,157.4664173188625,1745594343.1116922
148,1,1,3,778,15,-0.1923828125,0.974609375,-0.130859375,24.169921875,26.42822265625,268.00537109375,-162.16579188894625,-154.70092640394654,146.93529208284687,1745594343.118169
149,1,1,3,793,15,-0.318359375,1.12109375,-0.13916015625,26.30615234375,-3.23486328125,283.3251953125,-153.18454941777088,-142.72593644237938,166.49309609259018,1745594343.1406446
150,1,1,3,808,15,-0.35693359375,1.2314453125,-0.08984375,28.86962890625,-42.29736328125,292.29736328125,-181.62515057649284,-145.71968393277118,155.96197085657457,1745594343.1471462
151,1,1,3,823,15,-0.34228515625,1.2822265625,-0.02099609375,32.71484375,-74.40185546875,293.9453125,-199.58763551884357,-127.75719899042046,169.50198901716607,1745594343.1538067
152,1,1,3,838,15,-0.29296875,1.3544921875,-0.0205078125,39.0625,-98.32763671875,288.818359375,-199.58763551884357,-135.2415677163999,158.97086378115046,1745594343.16063
153,1,1,3,853,15,-0.2568359375,1.39306640625,-0.04443359375,54.01611328125,-110.2294921875,287.59765625,-210.0657517352148,-142.72593644237938,169.50198901716607,1745594343.167302
154,1,1,3,868,15,-0.1728515625,1.40966796875,-0.10009765625,74.8291015625,-94.54345703125,289.48974609375,-195.0970142832559,-139.7321889519876,160.4753102434384,1745594343.1737537
155,1,1,3,883,15,-0.2236328125,1.58251953125,-0.14794921875,97.7783203125,-61.58447265625,283.203125,-216.05324671599837,-157.69467389433834,154.4575243942866,1745594343.180247
156,1,1,3,898,15,-0.29736328125,1.72119140625,-0.1767578125,117.3095703125,-13.48876953125,270.1416015625,-217.5501204611943,-189.12902254345207,169.50198901716607,1745594343.1867263
157,1,1,3,913,15,-0.56689453125,1.8173828125,-0.0927734375,127.74658203125,49.62158203125,252.685546875,-245.99072161991626,-184.6384013078644,161.97975670572634,1745594343.1931803
158,1,1,3,928,15,-0.89306640625,1.91357421875,0.1015625,123.10791015625,90.6982421875,231.4453125,-247.48759536511216,-193.61964377903976,154.4575243942866,1745594343.199656
159,1,1,3,943,15,-1.02392578125,1.87451171875,0.25390625,104.67529296875,98.93798828125,203.43017578125,-247.48759536511216,-193.61964377903976,157.4664173188625,1745594343.2130826
160,1,1,3,958,15,-1.2998046875,1.63427734375,0.20654296875,76.7822265625,75.62255859375,161.92626953125,-240.00322663913266,-190.62589628864794,157.4664173188625,1745594343.2195814
161,1,1,3,973,15,-1.59375,1.455078125,0.107421875,58.89892578125,36.0107421875,111.083984375,-254.9719640910916,-198.11026501462743,154.4575243942866,1745594343.2314353
162,1,1,3,988,15,-1.86474609375,1.31689453125,0.1748046875,47.79052734375,-10.43701171875,57.2509765625,-274.43132277863816,-192.12277003384384,166.49309609259018,1745594343.2379248
163,1,1,4,3,15,-1.75244140625,1.21630859375,0.27392578125,30.82275390625,-53.52783203125,-6.7138671875,-262.4563328170711,-205.59463374060687,139.41305977140715,1745594343.2443712
164,1,1,4,18,15,-1.30517578125,1.193359375,0.36328125,9.82666015625,-70.4345703125,-64.697265625,-262.4563328170711,-201.1040125050192,149.94418500742276,1745594343.2508328
165,1,1,4,33,15,-0.88330078125,1.22216796875,0.48388671875,-12.0849609375,-78.55224609375,-101.5625,-266.9469540526587,-210.08525497619456,151.4486314697107,1745594343.3714342
166,1,1,4,48,15,0.1396484375,1.0634765625,-0.091796875,-31.8603515625,-72.93701171875,-113.76953125,-257.9657115814834,-208.5883812309987,149.94418500742276,1745594343.3781016
167,1,1,4,63,15,5.255859375,0.85595703125,-1.54052734375,31.43310546875,17.4560546875,-13.5498046875,-265.4500803074629,-222.06024493776172,157.4664173188625,1745594343.3845549
168,1,1,4,78,15,0.8017578125,1.7060546875,0.3349609375,14.6484375,139.22119140625,-27.77099609375,-275.92819652383406,-193.61964377903976,139.41305977140715,1745594343.3910284
169,1,1,4,93,15,-1.74072265625,1.43896484375,0.2548828125,12.26806640625,187.98828125,-132.8125,-287.90318648540125,-189.12902254345207,142.42195269598304,1745594343.3975096
170,1,1,4,108,15,0.34326171875,1.31396484375,0.181640625,9.8876953125,107.666015625,-118.2861328125,-274.43132277863816,-181.6446538174726,148.43973854513484,1745594343.4040332
171,1,1,4,123,15,-0.9580078125,1.66064453125,0.501953125,-1.220703125,26.0009765625,-117.49267578125,-274.43132277863816,-156.19780014914244,145.43084562055893,1745594343.4105098
172,1,1,4,138,15,0.28369140625,1.400390625,0.03125,7.62939453125,-68.115234375,-128.41796875,-295.3875552113807,-174.16028509149314,166.49309609259018,1745594343.4171028
173,1,1,4,153,15,0.06396484375,0.85302734375,-0.19873046875,3.7841796875,-59.2041015625,-107.177734375,-277.42507026902996,-174.16028509149314,155.96197085657457,1745594343.436566
174,1,1,4,168,15,0.1572265625,0.890625,-0.3671875,-1.46484375,-44.5556640625,-98.5107421875,-287.90318648540125,-160.6884213847301,145.43084562055893,1745594343.4430115
175,1,1,4,183,15,0.30908203125,0.98291015625,-0.31494140625,-6.103515625,-12.26806640625,-87.82958984375,-286.40631274020535,-165.1790426203178,149.94418500742276,1745594343.4495015
176,1,1,4,198,15,0.15234375,1.05126953125,-0.25390625,-12.39013671875,4.8828125,-82.21435546875,-265.4500803074629,-147.21655767796707,149.94418500742276,1745594343.4924777
177,1,1,4,213,15,0.0556640625,0.998046875,-0.1201171875,-11.53564453125,15.0146484375,-76.416015625,-283.4125652498136,-151.70717891355474,149.94418500742276,1745594343.4989717
178,1,1,4,228,15,-0.044921875,0.97412109375,-0.1103515625,-9.3994140625,4.08935546875,-70.25146484375,-283.4125652498136,-151.70717891355474,143.926399158271,1745594343.50544
179,1,1,4,243,15,-0.064453125,1.09619140625,-0.08203125,-8.9111328125,-24.169921875,-63.29345703125,-284.90943899500945,-160.6884213847301,145.43084562055893,1745594343.5118754
180,1,1,4,258,15,0.046875,1.1123046875,-0.16845703125,-8.36181640625,-36.62109375,-56.57958984375,-275.92819652383406,-165.1790426203178,154.4575243942866,1745594343.5183496
181,1,1,4,273,15,0.02490234375,1.11669921875,-0.240234375,-9.521484375,-38.51318359375,-51.26953125,-275.92819652383406,-154.70092640394654,154.4575243942866,1745594343.5247943
182,1,1,4,288,15,0.11279296875,1.06982421875,-0.18017578125,-9.94873046875,-34.60693359375,-48.583984375,-281.9156915046177,-166.6759163655137,137.9086133091192,1745594343.5315928
183,1,1,4,303,15,0.1142578125,1.029296875,-0.16455078125,-9.70458984375,-24.5361328125,-50.9033203125,-274.43132277863816,-145.71968393277118,148.43973854513484,1745594343.538082
184,1,1,4,318,15,0.07470703125,0.9912109375,-0.19677734375,-11.53564453125,-18.24951171875,-54.99267578125,-290.89693397579305,-144.22281018757528,157.4664173188625,1745594343.5445306
185,1,1,4,333,15,0.0087890625,0.962890625,-0.17724609375,-13.18359375,-16.11328125,-59.87548828125,-286.40631274020535,-157.69467389433834,146.93529208284687,1745594343.5510075
186,1,1,4,348,15,-0.02783203125,1.02001953125,-0.1650390625,-15.5029296875,-15.56396484375,-61.279296875,-286.40631274020535,-157.69467389433834,143.926399158271,1745594343.5575159
187,1,1,4,363,15,-0.02587890625,1.04833984375,-0.19091796875,-15.625,-16.7236328125,-59.38720703125,-284.90943899500945,-135.2415677163999,148.43973854513484,1745594343.5639741
188,1,1,4,378,15,-0.04443359375,1.03173828125,-0.18798828125,-14.95361328125,-15.07568359375,-57.06787109375,-287.90318648540125,-148.71343142316294,155.96197085657457,1745594343.5704575
189,1,1,4,393,15,-0.0439453125,1.0263671875,-0.14599609375,-13.97705078125,-14.16015625,-56.09130859375,-281.9156915046177,-148.71343142316294,169.50198901716607,1745594343.592785
190,1,1,4,408,15,-0.048828125,1.03369140625,-0.14501953125,-13.97705078125,-11.71875,-56.2744140625,-277.42507026902996,-138.23531520679174,148.43973854513484,1745594343.5992875
191,1,1,4,423,15,-0.06591796875,1.03515625,-0.142578125,-14.95361328125,-10.1318359375,-56.2744140625,-284.90943899500945,-142.72593644237938,155.96197085657457,1745594343.6057591
192,1,1,4,438,15,-0.07275390625,1.02978515625,-0.158203125,-15.31982421875,-10.498046875,-56.7626953125,-272.9344490334423,-147.21655767796707,154.4575243942866,1745594343.6121907
193,1,1,4,453,15,-0.08837890625,1.03271484375,-0.138671875,-15.56396484375,-9.521484375,-57.31201171875,-269.9407015430505,-142.72593644237938,148.43973854513484,1745594343.618679
194,1,1,4,468,15,-0.078125,1.05078125,-0.15478515625,-16.2353515625,-10.7421875,-58.9599609375,-284.90943899500945,-138.23531520679174,161.97975670572634,1745594343.6251454
195,1,1,4,483,15,-0.103515625,1.05810546875,-0.11572265625,-17.7001953125,-13.916015625,-59.99755859375,-278.92194401422586,-147.21655767796707,171.006435479454,1745594344.9985328
196,1,1,4,498,15,-0.0859375,1.06103515625,-0.1318359375,-19.47021484375,-16.845703125,-63.720703125,-275.92819652383406,-139.7321889519876,149.94418500742276,1745594345.0049994
197,1,1,4,513,15,-0.06982421875,1.09716796875,-0.1474609375,-22.27783203125,-21.1181640625,-68.359375,-292.39380772098895,-124.76345150002867,169.50198901716607,1745594345.0114906
198,1,1,4,528,15,-0.080078125,1.115234375,-0.12255859375,-25.87890625,-26.3671875,-73.974609375,-266.9469540526587,-145.71968393277118,169.50198901716607,1745594345.0179589
199,1,1,4,543,15,-0.04443359375,1.1591796875,-0.1181640625,-30.82275390625,-30.8837890625,-80.9326171875,-274.43132277863816,-120.272830264441,158.97086378115046,1745594345.0244029
200,1,1,4,558,15,-0.00732421875,1.18798828125,-0.04248046875,-34.7900390625,-33.0810546875,-89.17236328125,-275.92819652383406,-136.73844146159584,171.006435479454,1745594345.0492098
201,1,1,4,573,15,0.04736328125,1.23486328125,-0.03271484375,-39.85595703125,-27.03857421875,-98.93798828125,-266.9469540526587,-138.23531520679174,183.04200717775757,1745594345.0557008
202,1,1,4,588,15,0.07177734375,1.26318359375,-0.044921875,-44.25048828125,-19.287109375,-110.9619140625,-262.4563328170711,-133.74469397120401,171.006435479454,1745594345.062149
203,1,1,4,603,15,0.07421875,1.31103515625,-0.08740234375,-49.49951171875,-17.27294921875,-124.267578125,-268.4438277978546,-133.74469397120401,181.53756071546965,1745594345.0737753
204,1,1,4,618,15,0.18994140625,1.41943359375,-0.162109375,-56.0302734375,-23.25439453125,-140.56396484375,-250.48134285550393,-123.26657775483278,178.52866779089373,1745594345.0802615
205,1,1,4,633,15,0.396484375,1.7041015625,-0.32763671875,-71.10595703125,-24.59716796875,-161.4990234375,-263.953206562267,-135.2415677163999,175.51977486631785,1745594345.0867393
206,1,1,4,648,15,0.466796875,1.88916015625,-0.51708984375,-79.04052734375,-37.17041015625,-179.931640625,-250.48134285550393,-111.29158779326563,181.53756071546965,1745594345.0931716
207,1,1,4,663,15,0.43896484375,2.05078125,-0.48681640625,-75.50048828125,-85.75439453125,-189.453125,-238.50635289393676,-117.27908277404921,175.51977486631785,1745594345.1537411
208,1,1,4,678,15,1.1083984375,2.064453125,-0.451171875,-80.078125,-149.84130859375,-191.650390625,-248.98446911030803,-120.272830264441,196.58202533834913,1745594345.1603103
209,1,1,4,693,15,0.60791015625,1.57958984375,0.0751953125,-74.52392578125,-110.107421875,-185.05859375,-253.4750903458957,-120.272830264441,186.0509001023335,1745594345.1667876
210,1,1,4,708,15,-0.6748046875,1.68017578125,0.265625,-72.3876953125,9.765625,-210.205078125,-242.99697412952446,-120.272830264441,214.63538288580446,1745594345.173263
211,1,1,4,723,15,-0.4619140625,1.5830078125,-0.232421875,-55.11474609375,34.423828125,-207.33642578125,-231.02198416795733,-124.76345150002867,214.63538288580446,1745594345.1797616
212,1,1,4,738,15,-0.31103515625,1.484375,-0.615234375,-44.5556640625,55.2978515625,-178.16162109375,-240.00322663913266,-108.29784030287387,202.59981118750088,1745594345.186245
213,1,1,4,753,15,-0.376953125,1.12744140625,-0.49755859375,-53.52783203125,-11.04736328125,-134.521484375,-219.0469942063902,-100.81347157689439,216.1398293480924,1745594345.1927097
214,1,1,4,768,15,-0.18017578125,0.73486328125,-0.25390625,-40.95458984375,-70.73974609375,-88.80615234375,-220.54386795158607,-109.79471404806975,204.10425764978882,1745594345.1992095
215,1,1,4,783,15,0.259765625,0.51708984375,-0.08447265625,-37.04833984375,-70.37353515625,-51.45263671875,-198.09076177364767,-111.29158779326563,223.66206165953213,1745594345.205744
216,1,1,4,798,15,0.43603515625,0.22021484375,-0.09521484375,-26.18408203125,-21.91162109375,-2.13623046875,-223.53761544197786,-111.29158779326563,208.61759703665268,1745594345.212218
217,1,1,4,813,15,0.44873046875,0.0576171875,0.029296875,-10.31494140625,1.0986328125,39.0625,-217.5501204611943,-96.3228503413067,231.18429397097185,1745594345.2187114
218,1,1,4,828,15,0.22216796875,0.0322265625,0.0478515625,6.53076171875,22.39990234375,74.64599609375,-216.05324671599837,-108.29784030287387,229.67984750868393,1745594345.2253165
219,1,1,4,843,15,0.078125,0.05810546875,-0.02294921875,15.56396484375,34.423828125,96.5576171875,-205.57513049962714,-105.30409281248207,229.67984750868393,1745594345.2319784
220,1,1,4,858,15,0.1796875,0.09033203125,-0.060546875,22.27783203125,45.8984375,128.7841796875,-208.56887799001893,-105.30409281248207,232.6887404332598,1745594345.2384827
221,1,1,4,873,15,0.19921875,0.14697265625,-0.05859375,28.076171875,68.17626953125,164.794921875,-219.0469942063902,-82.85098663454367,240.21097274469955,1745594345.2449405
222,1,1,4,888,15,0.15869140625,0.23388671875,-0.05908203125,31.31103515625,75.86669921875,205.6884765625,-219.0469942063902,-87.34160787013136,250.74209798071516,1745594345.2515826
223,1,1,4,903,15,0.03466796875,0.35986328125,-0.07568359375,32.958984375,70.80078125,237.4267578125,-223.53761544197786,-87.34160787013136,243.21986566927544,1745594345.258253
224,1,1,4,918,15,0.00830078125,0.55322265625,-0.0791015625,37.04833984375,47.7294921875,261.3525390625,-226.53136293236963,-58.901006711409394,226.67095458410802,1745594345.2647533
225,1,1,4,933,15,-0.021484375,0.77978515625,-0.091796875,45.654296875,24.10888671875,282.5927734375,-229.5251104227614,-58.901006711409394,232.6887404332598,1745594345.2712362
226,1,1,4,948,15,-0.1376953125,0.9462890625,-0.0654296875,51.33056640625,-1.3427734375,303.03955078125,-231.02198416795733,-66.38537543738886,241.7154192069875,1745594345.2777617
227,1,1,4,963,15,-0.3046875,1.18505859375,-0.025390625,55.419921875,-34.36279296875,317.68798828125,-229.5251104227614,-42.43539551425457,243.21986566927544,1745594345.284217
228,1,1,4,978,15,-0.337890625,1.30615234375,0.0771484375,53.52783203125,-81.60400390625,325.3173828125,-254.9719640910916,-69.37912292778066,250.74209798071516,1745594345.290691
229,1,1,4,993,15,-0.27734375,1.38671875,0.11669921875,53.77197265625,-122.0703125,323.42529296875,-253.4750903458957,-70.87599667297654,244.72431213156338,1745594345.2972355
230,1,1,5,8,15,-0.21875,1.50244140625,0.08837890625,63.90380859375,-143.4326171875,318.29833984375,-272.9344490334423,-90.33535536052314,247.73320505613927,1745594345.3036907
231,1,1,5,23,15,-0.2197265625,1.6416015625,0.064453125,87.82958984375,-127.86865234375,318.4814453125,-281.9156915046177,-109.79471404806975,252.2465444430031,1745594345.3103025
232,1,1,5,38,15,-0.3046875,1.8056640625,0.02783203125,111.2060546875,-68.54248046875,312.68310546875,-293.8906814661848,-108.29784030287387,250.74209798071516,1745594345.3931577
233,1,1,5,53,15,-0.5283203125,1.9716796875,-0.0849609375,133.1787109375,23.86474609375,295.10498046875,-302.8719239373602,-109.79471404806975,249.23765151842724,1745594345.3996665
234,1,1,5,68,15,-0.9150390625,2.1162109375,-0.1376953125,149.7802734375,126.3427734375,266.11328125,-326.82190386049444,-117.27908277404921,241.7154192069875,1745594345.4061291
235,1,1,5,83,15,-1.375,2.09716796875,0.15234375,149.7802734375,197.1435546875,230.224609375,-344.78438880284517,-120.272830264441,231.18429397097185,1745594345.4319842
236,1,1,5,98,15,-1.5263671875,2.0263671875,0.49951171875,122.37548828125,187.98828125,186.5234375,-364.2437474903918,-123.26657775483278,237.20207982012366,1745594345.438515
237,1,1,5,113,15,-2.05615234375,1.6494140625,0.369140625,79.1015625,138.671875,127.74658203125,-368.7343687259795,-115.78220902885332,205.6087041120768,1745594345.4449596
238,1,1,5,128,15,-2.50927734375,1.421875,0.18212890625,45.166015625,36.80419921875,53.77197265625,-379.2124849423507,-147.21655767796707,223.66206165953213,1745594345.4514332
239,1,1,5,143,15,-2.13525390625,1.29248046875,0.193359375,18.24951171875,-52.42919921875,-17.333984375,-398.67184362989735,-124.76345150002867,214.63538288580446,1745594345.4579103
240,1,1,5,158,15,-1.4072265625,1.23583984375,0.333984375,2.9296875,-81.11572265625,-78.43017578125,-370.23124247117534,-117.27908277404921,207.11315057436474,1745594345.4643497
241,1,1,5,173,15,1.51904296875,1.076171875,-0.009765625,-18.12744140625,-79.2236328125,-113.09814453125,-392.68434864911376,-115.78220902885332,208.61759703665268,1745594345.470847
242,1,1,5,188,15,3.21826171875,1.34326171875,-0.5615234375,41.80908203125,25.7568359375,-20.8740234375,-404.6593386106809,-120.272830264441,207.11315057436474,1745594345.4824889
243,1,1,5,203,15,-1.19287109375,1.48779296875,-0.0791015625,8.544921875,119.93408203125,-86.60888671875,-391.1874749039178,-120.272830264441,217.64427581038035,1745594345.489159
244,1,1,5,218,15,-0.32861328125,1.537109375,0.431640625,15.44189453125,148.8037109375,-165.8935546875,-412.1437073366603,-102.31034532209028,196.58202533834913,1745594345.4956284
245,1,1,5,233,15,-0.6142578125,1.609375,0.74072265625,0.67138671875,66.10107421875,-109.31396484375,-407.6530861010727,-79.85723914415189,202.59981118750088,1745594345.5020928
246,1,1,5,248,15,0.330078125,1.4521484375,0.0537109375,17.333984375,-13.36669921875,-137.63427734375,-403.162464865485,-75.36661790856421,195.07757887606115,1745594345.51373
247,1,1,5,263,15,-0.0302734375,0.82568359375,-0.19580078125,15.13671875,-13.85498046875,-124.45068359375,-410.64683359146443,-64.88850169219297,205.6087041120768,1745594345.5210066
248,1,1,5,278,15,0.04736328125,0.875,-0.55029296875,6.89697265625,-39.0625,-114.8681640625,-410.64683359146443,-55.907259221017604,216.1398293480924,1745594345.5278153
249,1,1,5,293,15,0.16552734375,0.98974609375,-0.3232421875,-9.033203125,-25.7568359375,-104.55322265625,-394.18122239430966,-57.4041329662135,193.5731324137732,1745594345.5663803
250,1,1,5,308,15,0.13671875,1.02880859375,-0.271484375,-17.27294921875,-26.85546875,-94.6044921875,-389.6906011587219,-61.894754201801184,198.08647180063704,1745594345.5728261
251,1,1,5,323,15,0.0927734375,1.01513671875,-0.0947265625,-17.822265625,-18.310546875,-85.99853515625,-389.6906011587219,-52.91351173062582,202.59981118750088,1745594345.5792966
252,1,1,5,338,15,0.041015625,1.033203125,-0.07763671875,-12.939453125,-10.31494140625,-83.3740234375,-388.19372741352606,-51.41663798542993,210.12204349894063,1745594345.5857556
253,1,1,5,353,15,-0.03466796875,0.99853515625,-0.0380859375,-8.544921875,-7.01904296875,-75.74462890625,-392.68434864911376,-37.9447742786669,208.61759703665268,1745594345.592168
254,1,1,5,368,15,-0.021484375,1.07275390625,-0.14697265625,-5.31005859375,-3.35693359375,-68.54248046875,-383.70310617793837,-33.454153043079216,201.09536472521296,1745594345.5998018
255,1,1,5,383,15,-0.06884765625,1.068359375,-0.2900390625,-6.591796875,-17.7001953125,-62.1337890625,-385.19997992313426,-45.429143004646356,205.6087041120768,1745594345.6062787
256,1,1,5,398,15,-0.0146484375,1.0546875,-0.2060546875,-8.23974609375,-29.23583984375,-54.87060546875,-380.70935868754657,-28.963531807491538,207.11315057436474,1745594345.6127145
257,1,1,5,413,15,0.02587890625,1.0244140625,-0.0791015625,-6.16455078125,-25.390625,-52.06298828125,-380.70935868754657,-36.44790053347101,210.12204349894063,1745594345.6191764
258,1,1,5,428,15,0.0361328125,0.9755859375,-0.08740234375,-5.06591796875,-18.9208984375,-53.52783203125,-380.70935868754657,-36.44790053347101,204.10425764978882,1745594345.625951
259,1,1,5,443,15,-0.0205078125,0.97119140625,-0.17138671875,-6.103515625,-13.671875,-54.3212890625,-382.20623243274247,-24.47291057190386,216.1398293480924,1745594345.6324718
260,1,1,5,458,15,-0.06640625,0.9794921875,-0.19580078125,-7.4462890625,-12.75634765625,-53.955078125,-368.7343687259795,-27.466658062295643,205.6087041120768,1745594345.6389546
261,1,1,5,473,15,-0.0546875,1.08740234375,-0.16357421875,-9.6435546875,-14.70947265625,-52.978515625,-383.70310617793837,-15.491668100728502,207.11315057436474,1745594345.6454647
262,1,1,5,488,15,-0.03759765625,1.0546875,-0.14501953125,-9.21630859375,-15.2587890625,-52.3681640625,-373.22498996156713,-33.454153043079216,217.64427581038035,1745594345.6518993
263,1,1,5,503,15,-0.048828125,1.06982421875,-0.1142578125,-9.521484375,-13.427734375,-52.8564453125,-365.7406212355877,-18.48541559112029,214.63538288580446,1745594345.6583781
264,1,1,5,518,15,-0.072265625,1.07568359375,-0.1142578125,-9.765625,-13.48876953125,-53.22265625,-365.7406212355877,-18.48541559112029,214.63538288580446,1745594345.6738653
265,1,1,5,533,15,-0.05908203125,1.06591796875,-0.11865234375,-10.009765625,-13.61083984375,-53.52783203125,-365.7406212355877,-8.007299374749035,207.11315057436474,1745594345.6804037
266,1,1,5,548,15,-0.060546875,1.07861328125,-0.13671875,-10.1318359375,-12.939453125,-54.50439453125,-370.23124247117534,2.4708168416222125,214.63538288580446,1745594345.6868775
267,1,1,5,563,15,-0.0732421875,1.07763671875,-0.12548828125,-9.521484375,-13.36669921875,-55.60302734375,-361.24999999999994,-12.497920610336719,213.13093642351652,1745594345.6933236
268,1,1,5,578,15,-0.0771484375,1.080078125,-0.12744140625,-10.009765625,-14.70947265625,-57.31201171875,-361.24999999999994,-2.019804393965471,202.59981118750088,1745594345.6997936
269,1,1,5,593,15,-0.07861328125,1.09912109375,-0.14599609375,-11.23046875,-17.15087890625,-59.38720703125,-365.7406212355877,-15.491668100728502,220.65316873495624,1745594345.7062767
270,1,1,5,608,15,-0.04833984375,1.09375,-0.20849609375,-13.3056640625,-20.44677734375,-62.744140625,-359.7531262548041,-18.48541559112029,214.63538288580446,1745594345.7127042
271,1,1,5,623,15,-0.0185546875,1.0673828125,-0.23876953125,-16.66259765625,-21.54541015625,-69.091796875,-352.2687575288246,-3.5166781391613586,207.11315057436474,1745594345.7191973
272,1,1,5,638,15,-0.03662109375,1.07470703125,-0.22314453125,-20.81298828125,-24.84130859375,-77.45361328125,-359.7531262548041,-15.491668100728502,214.63538288580446,1745594345.7257624
273,1,1,5,653,15,-0.04833984375,1.0947265625,-0.169921875,-24.71923828125,-28.74755859375,-86.3037109375,-343.2875150576493,-9.50417311994493,223.66206165953213,1745594345.7326138
274,1,1,5,668,15,-0.02978515625,1.14599609375,-0.083984375,-30.1513671875,-31.18896484375,-95.39794921875,-343.2875150576493,-12.497920610336719,219.1487222726683,1745594345.7392159
275,1,1,5,683,15,0.001953125,1.20361328125,-0.05322265625,-34.423828125,-29.84619140625,-104.79736328125,-337.30002007686574,6.961438077209882,225.1665081218201,1745594345.7457035
276,1,1,5,698,15,0.03369140625,1.2587890625,-0.03076171875,-37.9638671875,-26.0009765625,-115.3564453125,-334.3062725864739,-3.5166781391613586,220.65316873495624,1745594345.7521477
277,1,1,5,713,15,0.09228515625,1.2734375,-0.0625,-41.1376953125,-23.25439453125,-127.8076171875,-322.3312826249068,-2.019804393965471,232.6887404332598,1745594345.8034172
278,1,1,5,728,15,0.1875,1.3427734375,-0.17236328125,-45.7763671875,-22.94921875,-144.47021484375,-322.3312826249068,11.452059312797573,232.6887404332598,1745594345.8099384
279,1,1,5,743,15,0.31396484375,1.65966796875,-0.32275390625,-56.45751953125,-25.69580078125,-165.34423828125,-316.3437876441232,17.439554293581136,241.7154192069875,1745594345.8164139
280,1,1,5,758,15,0.35888671875,1.86865234375,-0.54150390625,-64.453125,-43.15185546875,-182.43408203125,-292.39380772098895,20.433301783972926,241.7154192069875,1745594345.8228552
281,1,1,5,773,15,0.41064453125,2.02197265625,-0.5390625,-59.4482421875,-96.25244140625,-192.5048828125,-290.89693397579305,18.936428038777038,229.67984750868393,1745594345.829687
282,1,1,5,788,15,1.2412109375,2.03173828125,-0.43017578125,-64.8193359375,-165.4052734375,-199.0966796875,-278.92194401422586,15.94268054838525,243.21986566927544,1745594345.9153774
283,1,1,5,803,15,0.55029296875,1.5869140625,0.09130859375,-52.55126953125,-118.59130859375,-197.20458984375,-278.92194401422586,11.452059312797573,267.2910090658825,1745594345.9220748
284,1,1,5,818,15,-1.08984375,1.798828125,0.28466796875,-45.10498046875,-17.51708984375,-227.6611328125,-269.9407015430505,-0.5229306487695766,255.25543736757902,1745594345.9394083
285,1,1,5,833,15,-0.75146484375,1.73291015625,-0.19921875,-44.25048828125,-24.23095703125,-227.5390625,-262.4563328170711,0.9739430964263179,256.75988382986696,1745594345.94591
286,1,1,5,848,15,-0.40869140625,1.44677734375,-0.537109375,-32.40966796875,5.0048828125,-186.8896484375,-242.99697412952446,14.445806803189347,262.77766967901874,1745594345.9523537
287,1,1,5,863,15,-0.2236328125,1.212890625,-0.16357421875,-47.66845703125,-58.65478515625,-138.3056640625,-245.99072161991626,-3.5166781391613586,252.2465444430031,1745594345.9588232
288,1,1,5,878,15,0.14599609375,0.78076171875,-0.0927734375,-51.81884765625,-71.71630859375,-101.62353515625,-226.53136293236963,5.464564332013994,264.2821161413067,1745594345.9917014
289,1,1,5,893,15,0.52392578125,0.419921875,-0.0732421875,-38.330078125,-22.03369140625,-48.27880859375,-217.5501204611943,-3.5166781391613586,255.25543736757902,1745594345.998329
290,1,1,5,908,15,0.31494140625,0.27978515625,-0.048828125,-18.00537109375,49.8046875,-10.498046875,-208.56887799001893,-9.50417311994493,253.75099090529108,1745594346.0047703
291,1,1,5,923,15,0.1669921875,0.18701171875,-0.0166015625,-2.9296875,67.2607421875,32.16552734375,-225.03448918717373,-8.007299374749035,252.2465444430031,1745594346.0112352
292,1,1,5,938,15,-0.02490234375,0.15185546875,-0.10009765625,10.07080078125,59.2041015625,58.349609375,-211.5626254804107,-2.019804393965471,274.8132413773223,1745594346.0177038
293,1,1,5,953,15,0.01220703125,0.1005859375,-0.0869140625,15.869140625,49.49951171875,90.9423828125,-219.0469942063902,5.464564332013994,253.75099090529108,1745594346.0241435
294,1,1,5,968,15,0.0419921875,0.115234375,-0.06787109375,19.10400390625,48.27880859375,125.732421875,-211.5626254804107,0.9739430964263179,243.21986566927544,1745594346.0471551
295,1,1,5,983,15,0.06005859375,0.19384765625,-0.04443359375,17.63916015625,49.62158203125,159.60693359375,-207.07200424482303,-3.5166781391613586,255.25543736757902,1745594346.0536034
296,1,1,5,998,15,0.11865234375,0.22314453125,-0.0205078125,16.29638671875,50.47607421875,196.59423828125,-217.5501204611943,-3.5166781391613586,244.72431213156338,1745594346.0600665
297,1,1,6,13,15,0.1103515625,0.30224609375,-0.00341796875,16.90673828125,47.119140625,228.759765625,-207.07200424482303,2.4708168416222125,231.18429397097185,1745594346.06653
298,1,1,6,28,15,0.048828125,0.43359375,-0.05712890625,20.20263671875,37.9638671875,255.615234375,-211.5626254804107,15.94268054838525,229.67984750868393,1745594346.073031
299,1,1,6,43,15,-0.06103515625,0.61279296875,-0.14306640625,25.08544921875,15.0146484375,281.79931640625,-217.5501204611943,17.439554293581136,238.7065262824116,1745594346.0795064
300,1,1,6,58,15,-0.16162109375,0.74951171875,-0.1650390625,31.79931640625,-25.0244140625,304.26025390625,-238.50635289393676,35.40203923593186,238.7065262824116,1745594346.091282
301,1,1,6,73,15,-0.19775390625,0.86474609375,-0.13671875,38.39111328125,-70.73974609375,321.96044921875,-223.53761544197786,26.420796764756492,237.20207982012366,1745594346.0977743
302,1,1,6,88,15,-0.212890625,1.04345703125,-0.01953125,45.0439453125,-110.2294921875,333.31298828125,-250.48134285550393,29.41454425514828,247.73320505613927,1745594346.104229
303,1,1,6,103,15,-0.23974609375,1.17138671875,0.04833984375,52.67333984375,-146.17919921875,340.576171875,-263.953206562267,24.923923019560604,244.72431213156338,1745594346.1106942
304,1,1,6,118,15,-0.16259765625,1.34765625,0.03955078125,64.39208984375,-178.77197265625,338.37890625,-277.42507026902996,20.433301783972926,249.23765151842724,1745594346.1171632
305,1,1,6,133,15,-0.09521484375,1.50439453125,0.03662109375,90.33203125,-188.1103515625,336.60888671875,-311.85316640853557,8.458311822405784,261.2732232167308,1745594346.123608
306,1,1,6,148,15,-0.0888671875,1.79541015625,0.05908203125,123.10791015625,-159.72900390625,329.4677734375,-349.27501003843287,-18.48541559112029,270.29990199045847,1745594346.130393
307,1,1,6,163,15,-0.23388671875,2.216796875,0.0478515625,149.5361328125,-76.35498046875,314.14794921875,-356.7593787644123,-27.466658062295643,274.8132413773223,1745594346.1368895
308,1,1,6,178,15,-0.32177734375,2.275390625,0.00341796875,167.96875,61.767578125,294.5556640625,-419.62807606263976,-78.360365398956,273.30879491503435,1745594346.1433284
309,1,1,6,193,15,-0.88720703125,2.36572265625,0.06787109375,176.7578125,213.56201171875,265.2587890625,-458.546793437733,-88.83848161532725,255.25543736757902,1745594346.1498213
310,1,1,6,208,15,-1.33056640625,2.2158203125,0.42041015625,150.7568359375,258.9111328125,227.23388671875,-457.0499196925371,-90.33535536052314,237.20207982012366,1745594346.1563067
311,1,1,6,223,15,-1.81640625,1.935546875,0.37353515625,105.224609375,236.26708984375,164.61181640625,-488.4842683416509,-105.30409281248207,226.67095458410802,1745594346.1627543
312,1,1,6,238,15,-3.13916015625,1.693359375,0.34228515625,61.82861328125,151.91650390625,82.70263671875,-515.427995755177,-114.28533528365743,214.63538288580446,1745594346.169257
313,1,1,6,253,15,-2.79150390625,1.34326171875,0.08837890625,29.84619140625,15.56396484375,-26.2451171875,-519.9186169907647,-123.26657775483278,205.6087041120768,1745594346.1757355
314,1,1,6,268,15,-1.60986328125,1.3251953125,0.130859375,6.77490234375,-58.65478515625,-111.02294921875,-524.4092382263523,-108.29784030287387,208.61759703665268,1745594346.1821797
315,1,1,6,283,15,-0.6552734375,1.23291015625,0.2021484375,-21.91162109375,-116.76025390625,-145.08056640625,-527.4029857167441,-126.26032524522458,202.59981118750088,1745594346.1886654
316,1,1,6,298,15,4.52978515625,0.84033203125,-1.12060546875,11.41357421875,-53.16162109375,-59.814453125,-522.9123644811564,-91.83222910571904,201.09536472521296,1745594346.195132
317,1,1,6,313,15,1.21826171875,1.6552734375,0.2880859375,6.8359375,51.1474609375,-41.07666015625,-534.8873544427236,-82.85098663454367,208.61759703665268,1745594346.2015805
318,1,1,6,328,15,-1.44775390625,1.63671875,0.0244140625,25.45166015625,167.90771484375,-151.4892578125,-543.8685969138988,-109.79471404806975,204.10425764978882,1745594346.2080872
319,1,1,6,343,15,0.1640625,1.45361328125,0.57666015625,15.07568359375,149.658203125,-137.6953125,-533.3904806975277,-81.35411288934777,196.58202533834913,1745594346.21456
320,1,1,6,358,15,-0.68994140625,1.50048828125,0.48046875,4.150390625,76.2939453125,-118.0419921875,-533.3904806975277,-54.41038547582172,180.03311425318168,1745594346.221045
321,1,1,6,373,15,0.10986328125,1.33154296875,0.0888671875,11.90185546875,-30.82275390625,-130.06591796875,-533.3904806975277,-15.491668100728502,193.5731324137732,1745594346.227803
322,1,1,6,388,15,-0.0927734375,0.93212890625,-0.3291015625,6.04248046875,-46.7529296875,-105.5908203125,-534.8873544427236,-24.47291057190386,178.52866779089373,1745594346.234258
323,1,1,6,403,15,0.150390625,1.02197265625,-0.3154296875,-3.96728515625,-70.25146484375,-98.57177734375,-527.4029857167441,-12.497920610336719,192.06868595148526,1745594346.2407396
324,1,1,6,418,15,0.150390625,0.96875,-0.35986328125,-8.97216796875,-52.3681640625,-81.72607421875,-528.89985946194,-11.001046865140825,193.5731324137732,1745594346.2472863
325,1,1,6,433,15,0.17431640625,1.05078125,-0.1982421875,-11.5966796875,-42.54150390625,-72.509765625,-519.9186169907647,11.452059312797573,208.61759703665268,1745594346.2537403
326,1,1,6,448,15,0.1396484375,0.9951171875,-0.0712890625,-7.01904296875,-15.80810546875,-67.0166015625,-524.4092382263523,-16.988541845924395,192.06868595148526,1745594346.260225
327,1,1,6,463,15,0.03466796875,1.021484375,-0.06396484375,-3.60107421875,1.28173828125,-62.31689453125,-510.9373745195893,2.4708168416222125,201.09536472521296,1745594346.2667058
328,1,1,6,478,15,-0.06201171875,1.03955078125,-0.1689453125,-2.50244140625,-8.48388671875,-55.908203125,-509.4405007743934,11.452059312797573,181.53756071546965,1745594346.2975194
329,1,1,6,493,15,0.02392578125,1.04931640625,-0.28759765625,-5.06591796875,-26.55029296875,-52.55126953125,-504.9498795388057,-0.5229306487695766,201.09536472521296,1745594346.3039682
330,1,1,6,508,15,0.12744140625,1.01611328125,-0.2646484375,-6.9580078125,-32.16552734375,-50.9033203125,-507.9436270291975,38.395786726323635,186.0509001023335,1745594346.310435
331,1,1,6,523,15,0.17333984375,1.013671875,-0.21337890625,-7.99560546875,-26.06201171875,-55.0537109375,-509.4405007743934,18.936428038777038,213.13093642351652,1745594346.3169148
332,1,1,6,538,15,0.13720703125,1.0234375,-0.17529296875,-10.43701171875,-20.08056640625,-61.5234375,-509.4405007743934,36.898912981127744,202.59981118750088,1745594346.3233514
333,1,1,6,553,15,0.06298828125,1.02783203125,-0.1318359375,-12.939453125,-17.7001953125,-67.19970703125,-506.4467532840016,33.90516549073595,195.07757887606115,1745594346.330141
334,1,1,6,568,15,0.0400390625,0.99267578125,-0.14501953125,-14.404296875,-14.70947265625,-70.25146484375,-494.47176332243447,35.40203923593186,204.10425764978882,1745594346.3366354
335,1,1,6,583,15,-0.029296875,1.005859375,-0.17236328125,-14.09912109375,-9.33837890625,-69.51904296875,-488.4842683416509,39.892660471519534,184.54645364004554,1745594346.343093
336,1,1,6,598,15,-0.10009765625,1.05615234375,-0.15771484375,-13.427734375,-10.07080078125,-66.34521484375,-500.459258303218,38.395786726323635,207.11315057436474,1745594346.3495798
337,1,1,6,613,15,-0.10205078125,1.048828125,-0.11328125,-12.6953125,-14.16015625,-61.21826171875,-479.50302587047554,42.886407961911324,214.63538288580446,1745594346.3560526
338,1,1,6,628,15,-0.08154296875,1.03466796875,-0.11865234375,-11.65771484375,-16.90673828125,-58.16650390625,-479.50302587047554,56.358271668674355,204.10425764978882,1745594346.3624973
339,1,1,6,643,15,-0.03759765625,1.04052734375,-0.10791015625,-11.23046875,-15.80810546875,-57.2509765625,-475.01240463488784,57.85514541387024,195.07757887606115,1745594346.3690422
340,1,1,6,658,15,-0.07421875,1.0419921875,-0.15576171875,-12.5732421875,-14.16015625,-57.2509765625,-480.99989961567144,72.82388286582916,219.1487222726683,1745594346.38073
341,1,1,6,673,15,-0.078125,1.06298828125,-0.203125,-12.6953125,-16.17431640625,-57.18994140625,-488.4842683416509,75.81763035622096,216.1398293480924,1745594346.3874507
342,1,1,6,688,15,-0.0966796875,1.04541015625,-0.18505859375,-11.53564453125,-20.08056640625,-57.06787109375,-469.02490965410425,66.83638788504561,220.65316873495624,1745594346.393885
343,1,1,6,703,15,-0.08056640625,1.04345703125,-0.17431640625,-12.26806640625,-23.5595703125,-57.373046875,-480.99989961567144,69.83013537543738,226.67095458410802,1745594346.4003825
344,1,1,6,718,15,-0.07080078125,1.05615234375,-0.17578125,-14.7705078125,-26.30615234375,-59.63134765625,-469.02490965410425,74.32075661102506,231.18429397097185,1745594346.4068518
345,1,1,6,733,15,-0.03271484375,1.0458984375,-0.154296875,-17.76123046875,-27.16064453125,-64.697265625,-475.01240463488784,69.83013537543738,208.61759703665268,1745594346.4132953
346,1,1,6,748,15,-0.04150390625,1.04931640625,-0.14599609375,-21.30126953125,-22.216796875,-70.6787109375,-467.52803590890835,83.30199908220041,213.13093642351652,1745594346.4197905
347,1,1,6,763,15,-0.02294921875,1.05810546875,-0.142578125,-23.62060546875,-19.47021484375,-77.63671875,-458.546793437733,84.79887282739631,225.1665081218201,1745594346.4265637
348,1,1,6,778,15,-0.02099609375,1.12109375,-0.12255859375,-27.2216796875,-18.798828125,-84.716796875,-449.5655509665577,83.30199908220041,216.1398293480924,1745594346.4330242
349,1,1,6,793,15,0.00732421875,1.15380859375,-0.0791015625,-31.494140625,-19.47021484375,-93.6279296875,-443.5780559857741,95.27698904376757,217.64427581038035,1745594346.4709904
350,1,1,6,808,15,0.033203125,1.1962890625,-0.0712890625,-37.41455078125,-15.31982421875,-103.02734375,-442.0811822405782,87.79262031778809,223.66206165953213,1745594346.4775066
351,1,1,6,823,15,0.06103515625,1.2177734375,-0.09716796875,-41.748046875,-10.1318359375,-113.6474609375,-437.5905610049905,89.28949406298399,231.18429397097185,1745594346.4839532
352,1,1,6,838,15,0.07666015625,1.23876953125,-0.17041015625,-46.0205078125,-8.544921875,-125.30517578125,-439.0874347501864,119.22696896690185,226.67095458410802,1745594346.490422
353,1,1,6,853,15,0.16748046875,1.3203125,-0.21728515625,-49.072265625,-16.90673828125,-140.31982421875,-400.1687173750932,111.74260024092237,243.21986566927544,1745594346.4971414
354,1,1,6,868,15,0.39794921875,1.6083984375,-0.24609375,-61.4013671875,-23.98681640625,-158.203125,-416.634328572248,120.72384271209773,235.6976333578357,1745594346.5036726
355,1,1,6,883,15,0.4892578125,1.87158203125,-0.408203125,-72.6318359375,-37.9638671875,-171.32568359375,-397.17496988470145,126.7113376928813,253.75099090529108,1745594346.5101619
356,1,1,6,898,15,0.498046875,2.0078125,-0.35009765625,-71.6552734375,-92.22412109375,-174.25537109375,-377.71561119715483,131.201958928469,244.72431213156338,1745594346.516636
357,1,1,6,913,15,0.9443359375,1.9931640625,-0.17431640625,-78.18603515625,-138.97705078125,-185.85205078125,-374.72186370676303,122.22071645729363,264.2821161413067,1745594346.7907593
358,1,1,6,928,15,0.0478515625,1.673828125,0.0185546875,-60.60791015625,-29.35791015625,-216.30859375,-353.7656312740205,129.7050851832731,285.34436661333797,1745594346.7972856
359,1,1,6,943,15,-0.29248046875,1.91162109375,0.09228515625,-44.189453125,41.68701171875,-229.4921875,-344.78438880284517,131.201958928469,283.83992015105,1745594346.8037415
360,1,1,6,958,15,-0.017578125,1.5615234375,-0.20068359375,-47.8515625,45.166015625,-205.99365234375,-334.3062725864739,149.16444387081972,283.83992015105,1745594346.8102782
361,1,1,6,973,15,-0.25927734375,1.3046875,-0.4921875,-40.34423828125,39.306640625,-172.119140625,-314.8469138989273,170.1206763035622,288.3532595379138,1745594346.8220503
362,1,1,6,988,15,-0.70849609375,1.20751953125,-0.40673828125,-50.23193359375,-23.98681640625,-143.310546875,-302.8719239373602,167.12692881317042,273.30879491503435,1745594346.828929
363,1,1,7,3,15,-0.34130859375,1.06689453125,-0.31689453125,-55.0537109375,-71.96044921875,-105.5908203125,-298.3813027017725,177.60504502954169,283.83992015105,1745594346.950917
364,1,1,7,18,15,0.63134765625,0.50537109375,-0.072265625,-57.80029296875,-58.10546875,-46.9970703125,-307.3625451729478,191.07690873630472,291.3621524624897,1745594346.9574246
365,1,1,7,33,15,0.673828125,0.25,-0.0244140625,-27.099609375,33.02001953125,8.36181640625,-287.90318648540125,177.60504502954169,289.85770600020174,1745594346.9638772
366,1,1,7,48,15,0.2861328125,0.22119140625,-0.08935546875,-7.01904296875,103.33251953125,40.22216796875,-287.90318648540125,174.6112975391499,286.84881307562586,1745594346.9704256
367,1,1,7,63,15,0.0078125,0.13330078125,-0.23681640625,9.8876953125,125.91552734375,73.73046875,-295.3875552113807,192.57378248150061,286.84881307562586,1745594346.976911
368,1,1,7,78,15,0.025390625,0.10205078125,-0.34228515625,10.25390625,87.70751953125,102.35595703125,-305.8656714277519,203.05189869787188,270.29990199045847,1745594346.9885774
369,1,1,7,93,15,0.0732421875,0.1025390625,-0.28759765625,6.77490234375,51.45263671875,130.859375,-337.30002007686574,225.50500487581022,259.76877675444285,1745594346.9950762
370,1,1,7,108,15,0.01318359375,0.14453125,-0.16015625,2.3193359375,31.982421875,160.82763671875,-337.30002007686574,221.01438364022258,259.76877675444285,1745594347.001537
371,1,1,7,123,15,0.11572265625,0.20703125,-0.0712890625,0.18310546875,1.77001953125,198.18115234375,-385.19997992313426,209.03939367865541,256.75988382986696,1745594347.0080216
372,1,1,7,138,15,0.16845703125,0.337890625,0.001953125,1.5869140625,-19.95849609375,230.95703125,-410.64683359146443,219.51750989502668,237.20207982012366,1745594347.1691492
373,1,1,7,153,15,0.07666015625,0.5234375,0.01416015625,5.92041015625,-36.865234375,263.48876953125,-437.5905610049905,195.56752997189238,252.2465444430031,1745594347.17563
374,1,1,7,168,15,0.04833984375,0.66650390625,-0.0185546875,12.75634765625,-60.4248046875,295.166015625,-452.5592984569495,194.07065622669649,264.2821161413067,1745594347.1820686
375,1,1,7,183,15,0.0751953125,0.7890625,-0.00830078125,25.69580078125,-90.75927734375,322.265625,-498.9623845580221,144.67382263523203,250.74209798071516,1745594347.1940877
376,1,1,7,198,15,-0.0205078125,0.986328125,-0.04638671875,41.93115234375,-114.92919921875,339.66064453125,-534.8873544427236,126.7113376928813,256.75988382986696,1745594347.200588
377,1,1,7,213,15,-0.033203125,1.19775390625,-0.03369140625,58.837890625,-138.48876953125,353.3935546875,-573.8060718178168,87.79262031778809,256.75988382986696,1745594347.2070596
378,1,1,7,228,15,0.041015625,1.4755859375,-0.00634765625,77.1484375,-151.7333984375,357.11669921875,-605.2404204669306,44.38328170710721,261.2732232167308,1745594347.2189415
379,1,1,7,243,15,0.00244140625,1.7490234375,0.0673828125,98.57177734375,-135.8642578125,356.87255859375,-639.668516606436,-51.41663798542993,249.23765151842724,1745594347.2256107
380,1,1,7,258,15,-0.1064453125,2.03955078125,0.0947265625,124.08447265625,-75.01220703125,350.28076171875,-650.1466328228073,-78.360365398956,228.17540104639596,1745594347.2321272
381,1,1,7,273,15,-0.447265625,2.25048828125,0.0595703125,144.59228515625,35.58349609375,337.0361328125,-698.0465926690758,-180.1477800722767,195.07757887606115,1745594347.2386065
382,1,1,7,288,15,-1.0986328125,2.3896484375,-0.15283203125,160.09521484375,151.91650390625,312.255859375,-716.0090776114266,-247.5070986060919,195.07757887606115,1745594347.2450752
383,1,1,7,303,15,-1.67578125,2.3701171875,0.0302734375,162.65869140625,217.041015625,276.06201171875,-713.0153301210347,-313.36954339471123,155.96197085657457,1745594347.2515254
384,1,1,7,318,15,-1.99365234375,2.2548828125,0.36328125,136.1083984375,190.00244140625,224.18212890625,-708.5247088854471,-337.31952331784544,128.88193453539154,1745594347.2579963
385,1,1,7,333,15,-2.49755859375,1.80615234375,0.32958984375,85.205078125,117.67578125,150.7568359375,-704.0340876498594,-416.6538318132278,112.33302345022412,1745594347.2644467
386,1,1,7,348,15,-3.0458984375,1.48095703125,0.326171875,43.39599609375,5.0048828125,61.279296875,-696.5497189238799,-436.1131905007744,107.81968406336027,1745594347.2776883
387,1,1,7,363,15,-2.5146484375,1.388671875,0.2919921875,10.1318359375,-83.80126953125,-26.123046875,-689.0653501979006,-464.55379165949637,89.76632651590494,1745594347.2841444
388,1,1,7,378,15,-1.2861328125,1.35693359375,0.375,-11.1083984375,-110.77880859375,-98.14453125,-684.5747289623129,-472.0381603854758,79.2352012798893,1745594347.2906466
389,1,1,7,393,15,2.9404296875,1.361328125,-0.44482421875,-17.578125,-46.9970703125,-110.53466796875,-699.5434664142717,-485.51002409223884,55.16405788328216,1745594347.2971323
390,1,1,7,408,15,2.14990234375,1.55224609375,-0.14208984375,31.18896484375,43.9453125,-46.875,-716.0090776114266,-476.52878162106344,53.659611420994224,1745594347.3035862
391,1,1,7,423,15,-2.17822265625,1.48828125,0.26708984375,21.05712890625,177.30712890625,-138.0615234375,-698.0465926690758,-463.05691791430047,56.668504345570106,1745594347.310064
392,1,1,7,438,15,-0.453125,1.712890625,0.86865234375,0.3662109375,105.224609375,-157.5927734375,-711.5184563758388,-473.5350341306717,61.18184373243395,1745594347.3165662
393,1,1,7,453,15,0.05810546875,1.32861328125,0.19921875,12.5732421875,34.7900390625,-129.8828125,-721.9965725922102,-430.1256955199908,85.25298712904109,1745594347.3231213
394,1,1,7,468,15,0.1025390625,1.1298828125,-0.14697265625,23.49853515625,10.25390625,-122.4365234375,-751.934047496128,-400.18822061607295,76.2263083553134,1745594347.3298144
395,1,1,7,483,15,0.03173828125,0.76611328125,-0.46044921875,16.11328125,-30.94482421875,-111.51123046875,-747.4434262605404,-383.7226094189181,56.668504345570106,1745594347.3363082
396,1,1,7,498,15,0.00048828125,1.02294921875,-0.224609375,-2.74658203125,-48.64501953125,-106.38427734375,-765.405911202891,-365.7601244765674,74.72186189302546,1745594347.3427536
397,1,1,7,513,15,0.181640625,0.99755859375,-0.29541015625,-8.60595703125,-33.75244140625,-93.93310546875,-775.8840274192623,-365.7601244765674,50.65071849641833,1745594347.3492353
398,1,1,7,528,15,0.12890625,1.08056640625,-0.2041015625,-11.53564453125,-25.87890625,-83.251953125,-771.3934061836746,-352.28826076980437,61.18184373243395,1745594347.7674787
399,1,1,7,543,15,0.06884765625,1.05810546875,-0.0224609375,-10.8642578125,-15.625,-78.857421875,-780.37464865485,-338.81639706304134,55.16405788328216,1745594347.7740731
400,1,1,7,558,15,0.0986328125,1.03271484375,-0.00732421875,-3.2958984375,3.72314453125,-71.77734375,-777.3809011644582,-325.3445333562783,49.14627203413038,1745594347.7808921
401,1,1,7,573,15,-0.1298828125,1.05029296875,-0.205078125,-0.244140625,4.57763671875,-64.14794921875,-777.3809011644582,-310.3757959043194,49.14627203413038,1745594347.7876213
402,1,1,7,588,15,-0.072265625,1.037109375,-0.30322265625,-4.08935546875,-20.32470703125,-56.45751953125,-778.8777749096541,-316.36329088510297,61.18184373243395,1745594347.7940829
403,1,1,7,603,15,0.04736328125,1.064453125,-0.22021484375,-6.53076171875,-29.96826171875,-50.35400390625,-787.8590173808294,-289.4195634715769,44.63293264726654,1745594347.8005676
404,1,1,7,618,15,0.10205078125,1.03857421875,-0.146484375,-6.7138671875,-27.4658203125,-49.6826171875,-793.846512361613,-298.40080594275224,40.1195932604027,1745594347.8070538
405,1,1,7,633,15,0.107421875,0.998046875,-0.14111328125,-7.26318359375,-19.4091796875,-54.74853515625,-793.846512361613,-290.9164372167728,53.659611420994224,1745594347.8135211
406,1,1,7,648,15,0.033203125,0.96337890625,-0.1708984375,-9.21630859375,-13.12255859375,-59.814453125,-786.3621436356336,-283.43206849079326,46.13737910955449,1745594347.820006
407,1,1,7,663,15,-0.00341796875,1.0439453125,-0.16259765625,-11.962890625,-13.671875,-62.31689453125,-787.8590173808294,-281.93519474559736,52.15516495870627,1745594347.8267317
408,1,1,7,678,15,-0.0537109375,1.02294921875,-0.14990234375,-11.8408203125,-17.08984375,-61.8896484375,-790.8527648712212,-263.9727098032467,49.14627203413038,1745594347.8331945
409,1,1,7,693,15,-0.0380859375,1.03857421875,-0.142578125,-12.451171875,-18.37158203125,-61.46240234375,-784.8652698904377,-253.49459358687545,49.14627203413038,1745594347.8556654
410,1,1,7,708,15,-0.0595703125,1.06982421875,-0.1357421875,-11.65771484375,-19.53125,-61.4013671875,-790.8527648712212,-260.97896231285495,49.14627203413038,1745594347.8621438
411,1,1,7,723,15,-0.05126953125,1.0732421875,-0.14404296875,-11.71875,-20.263671875,-60.60791015625,-793.846512361613,-234.03523489932883,56.668504345570106,1745594347.8990571
412,1,1,7,738,15,-0.0771484375,1.06640625,-0.1337890625,-11.474609375,-20.44677734375,-60.1806640625,-798.3371335972007,-228.0477399185453,41.624039722690654,1745594347.905767
413,1,1,7,753,15,-0.0908203125,1.064453125,-0.14697265625,-11.71875,-20.5078125,-59.5703125,-784.8652698904377,-199.60713875982333,49.14627203413038,1745594347.912529
414,1,1,7,768,15,-0.10498046875,1.0361328125,-0.173828125,-11.65771484375,-22.15576171875,-59.2041015625,-774.3871536740664,-210.08525497619456,55.16405788328216,1745594347.9190493
415,1,1,7,783,15,-0.10595703125,1.02685546875,-0.171875,-12.39013671875,-23.8037109375,-59.326171875,-799.8340073423966,-183.1415275626685,53.659611420994224,1745594347.9255345
416,1,1,7,798,15,-0.11181640625,1.0576171875,-0.18115234375,-13.48876953125,-24.90234375,-59.87548828125,-789.3558911260253,-187.63214879825617,61.18184373243395,1745594347.932243
417,1,1,7,813,15,-0.11376953125,1.08203125,-0.17626953125,-14.6484375,-29.4189453125,-60.9130859375,-777.3809011644582,-189.12902254345207,52.15516495870627,1745594347.9387429
418,1,1,7,828,15,-0.07568359375,1.06787109375,-0.1337890625,-15.9912109375,-34.1796875,-63.53759765625,-787.8590173808294,-171.16653760110134,65.6951831192978,1745594347.9452217
419,1,1,7,843,15,-0.04296875,1.07470703125,-0.11865234375,-19.10400390625,-32.65380859375,-68.7255859375,-783.3683961452418,-154.70092640394654,74.72186189302546,1745594347.95169
420,1,1,7,858,15,-0.046875,1.0888671875,-0.11328125,-22.64404296875,-29.6630859375,-75.927734375,-786.3621436356336,-162.18529512992598,67.19962958158573,1745594347.9581664
421,1,1,7,873,15,-0.01123046875,1.13525390625,-0.0673828125,-27.7099609375,-25.5126953125,-84.41162109375,-790.8527648712212,-145.71968393277118,62.68629019472189,1745594347.9649382
422,1,1,7,888,15,0.02294921875,1.18359375,-0.08154296875,-33.50830078125,-17.02880859375,-93.3837890625,-784.8652698904377,-142.72593644237938,79.2352012798893,1745594347.9872181
423,1,1,7,903,15,0.02685546875,1.193359375,-0.10693359375,-36.9873046875,-9.94873046875,-102.72216796875,-778.8777749096541,-129.25407273561638,74.72186189302546,1745594347.9936714
424,1,1,7,918,15,0.01171875,1.20654296875,-0.1474609375,-40.4052734375,-9.033203125,-113.037109375,-784.8652698904377,-127.75719899042046,86.75743359132903,1745594348.0001743
425,1,1,7,933,15,0.041015625,1.220703125,-0.2041015625,-42.29736328125,-15.9912109375,-124.755859375,-778.8777749096541,-111.29158779326563,91.27077297819287,1745594348.0066643
426,1,1,7,948,15,0.134765625,1.31005859375,-0.2275390625,-44.25048828125,-29.541015625,-139.70947265625,-775.8840274192623,-93.32910285091494,91.27077297819287,1745594348.013137
427,1,1,7,963,15,0.380859375,1.6162109375,-0.2236328125,-53.7109375,-41.9921875,-159.11865234375,-763.9090374576951,-60.397880456605286,103.30634467649644,1745594348.0197096
428,1,1,7,978,15,0.48486328125,1.95263671875,-0.3828125,-68.66455078125,-58.10546875,-173.9501953125,-771.3934061836746,-55.907259221017604,101.80189821420849,1745594348.026864
429,1,1,7,993,15,0.62158203125,2.15869140625,-0.32421875,-70.86181640625,-125.06103515625,-176.6357421875,-750.4371737509321,-58.901006711409394,115.34191637480001,1745594349.3529
430,1,1,8,8,15,0.9072265625,1.86962890625,-0.08935546875,-75.98876953125,-170.2880859375,-176.57470703125,-744.4496787701486,-42.43539551425457,125.87304161081563,1745594349.3594186
431,1,1,8,23,15,-0.18994140625,1.69873046875,-0.201171875,-57.31201171875,-44.98291015625,-206.35986328125,-727.9840675729938,-33.454153043079216,142.42195269598304,1745594349.3659294
432,1,1,8,38,15,-0.275390625,1.86767578125,-0.0595703125,-40.83251953125,48.9501953125,-216.36962890625,-720.4996988470143,-25.969784317099755,151.4486314697107,1745594349.3725667
433,1,1,8,53,15,-0.34228515625,1.45703125,-0.361328125,-37.78076171875,44.98291015625,-200.0732421875,-721.9965725922102,0.9739430964263179,139.41305977140715,1745594349.3793037
434,1,1,8,68,15,-0.35693359375,1.294921875,-0.68017578125,-36.19384765625,-12.14599609375,-173.4619140625,-701.0403401594676,8.458311822405784,136.40416684683126,1745594349.385822
435,1,1,8,83,15,-0.3359375,1.16455078125,-0.40087890625,-47.79052734375,-85.51025390625,-126.3427734375,-684.5747289623129,-11.001046865140825,158.97086378115046,1745594351.828982
436,1,1,8,98,15,-0.25146484375,0.81201171875,-0.36767578125,-45.59326171875,-125.0,-90.2099609375,-669.605991510354,-6.510425629553148,146.93529208284687,1745594351.8520818
437,1,1,8,113,15,0.26171875,0.43603515625,-0.19580078125,-37.59765625,-92.34619140625,-31.79931640625,-665.1153702747663,-12.497920610336719,157.4664173188625,1745594351.858577
438,1,1,8,128,15,0.39013671875,0.21630859375,-0.0263671875,-25.0244140625,-36.865234375,1.3427734375,-644.1591378420237,-48.422890495038146,157.4664173188625,1745594351.8650124
439,1,1,8,143,15,0.2890625,0.20068359375,0.083984375,-8.7890625,12.02392578125,41.1376953125,-632.1841478804566,-63.39162794699707,145.43084562055893,1745594351.8714943
440,1,1,8,158,15,0.173828125,0.162109375,0.1083984375,1.15966796875,29.541015625,72.81494140625,-611.2279154477142,-114.28533528365743,134.8997203845433,1745594351.8779738
441,1,1,8,173,15,0.04052734375,0.12255859375,0.0224609375,8.7890625,45.10498046875,97.65625,-635.1778953708483,-132.24782022600812,142.42195269598304,1745594351.8844135
442,1,1,8,188,15,0.0771484375,0.107421875,-0.060546875,13.00048828125,59.326171875,129.08935546875,-609.7310417025183,-172.66341134629724,128.88193453539154,1745594351.896148
443,1,1,8,203,15,0.080078125,0.126953125,-0.1005859375,15.68603515625,76.2939453125,164.4287109375,-597.756051740951,-216.07274995697813,139.41305977140715,1745594351.9026506
444,1,1,8,218,15,0.10302734375,0.1787109375,-0.10888671875,15.2587890625,86.73095703125,200.5615234375,-578.2966930534044,-253.49459358687545,127.37748807310358,1745594351.909131
445,1,1,8,233,15,0.0830078125,0.26513671875,-0.1015625,14.7705078125,89.66064453125,234.06982421875,-537.8811019331152,-283.43206849079326,112.33302345022412,1745594351.915614
446,1,1,8,248,15,-0.0185546875,0.46435546875,-0.15087890625,19.04296875,81.60400390625,259.6435546875,-500.459258303218,-338.81639706304134,110.82857698793617,1745594351.9220726
447,1,1,8,263,15,-0.2255859375,0.69189453125,-0.21142578125,24.59716796875,67.07763671875,282.1044921875,-488.4842683416509,-376.2382406929387,95.7841123650567,1745594351.9288125
448,1,1,8,278,15,-0.29736328125,0.8232421875,-0.23486328125,28.4423828125,26.0009765625,302.06298828125,-416.634328572248,-439.10693799116615,107.81968406336027,1745594351.9353142
449,1,1,8,293,15,-0.2861328125,1.078125,-0.18359375,33.63037109375,-12.939453125,313.29345703125,-385.19997992313426,-451.0819279527333,101.80189821420849,1745594352.2294428
450,1,1,8,308,15,-0.400390625,1.2626953125,-0.0888671875,36.7431640625,-49.4384765625,321.10595703125,-310.3562926633397,-475.0319078758676,82.2440942044652,1745594352.2360334
451,1,1,8,323,15,-0.43310546875,1.35498046875,-0.041015625,41.07666015625,-92.4072265625,318.29833984375,-247.48759536511216,-473.5350341306717,74.72186189302546,1745594352.2424853
452,1,1,8,338,15,-0.3427734375,1.423828125,-0.06884765625,51.45263671875,-125.3662109375,311.58447265625,-142.70643320139962,-464.55379165949637,65.6951831192978,1745594352.2489612
453,1,1,8,353,15,-0.29248046875,1.46435546875,-0.11962890625,74.8291015625,-126.28173828125,310.6689453125,-124.74394825904892,-446.59130671714564,68.70407604387367,1745594352.2554276
454,1,1,8,368,15,-0.2783203125,1.6142578125,-0.19873046875,103.759765625,-96.13037109375,306.640625,-51.39713474445018,-410.6663368324442,79.2352012798893,1745594352.2618651
455,1,1,8,383,15,-0.37109375,1.9189453125,-0.21728515625,128.5400390625,-32.5927734375,295.10498046875,-21.45965984053232,-376.2382406929387,64.19073665700984,1745594352.2683537
456,1,1,8,398,15,-0.5166015625,2.044921875,-0.19482421875,150.08544921875,50.537109375,277.587890625,27.937173750932143,-326.8414071014742,74.72186189302546,1745594352.2748024
457,1,1,8,413,15,-0.87744140625,2.12548828125,-0.119140625,163.0859375,137.63427734375,251.46484375,20.452805024952678,-280.4383210004015,88.26188005361698,1745594352.2813087
458,1,1,8,428,15,-1.267578125,2.0615234375,0.33203125,146.05712890625,150.20751953125,218.75,48.89340618367464,-219.06649744736993,119.85525576166384,1745594352.2877908
459,1,1,8,443,15,-1.4296875,1.76123046875,0.2861328125,106.14013671875,109.19189453125,168.64013671875,15.962183789364998,-190.62589628864794,109.32413052564823,1745594352.2942376
460,1,1,8,458,15,-2.15625,1.58154296875,0.36328125,70.73974609375,36.1328125,107.11669921875,14.465310044169106,-148.71343142316294,127.37748807310358,1745594352.3287444
461,1,1,8,473,15,-2.41064453125,1.48193359375,0.4501953125,36.68212890625,-59.26513671875,34.1796875,14.465310044169106,-120.272830264441,137.9086133091192,1745594352.3352783
462,1,1,8,488,15,-1.64599609375,1.23388671875,0.34033203125,13.7939453125,-99.9755859375,-47.7294921875,-18.465912350140538,-96.3228503413067,151.4486314697107,1745594352.3522487
463,1,1,8,503,15,-1.0390625,1.25634765625,0.4638671875,-6.2255859375,-101.37939453125,-111.51123046875,-3.4971748981816093,-106.80096655767797,148.43973854513484,1745594352.7193136
464,1,1,8,518,15,0.49951171875,1.08154296875,0.08837890625,-22.8271484375,-91.61376953125,-127.0751953125,-7.9877961337692875,-108.29784030287387,143.926399158271,1745594352.7338526
465,1,1,8,533,15,4.04296875,0.99169921875,-1.16796875,30.09033203125,54.931640625,-37.41455078125,-16.969038604944643,-105.30409281248207,160.4753102434384,1745594352.740503
466,1,1,8,548,15,0.01025390625,1.78125,0.40625,2.99072265625,167.90771484375,-69.76318359375,-3.4971748981816093,-102.31034532209028,148.43973854513484,1745594352.7470067
467,1,1,8,563,15,-0.9150390625,1.30908203125,0.146484375,28.86962890625,197.93701171875,-162.90283203125,-12.478417369356967,-99.3165978316985,151.4486314697107,1745594352.7534587
468,1,1,8,578,15,-0.27880859375,1.3603515625,0.14208984375,20.6298828125,147.3388671875,-122.25341796875,-18.465912350140538,-102.31034532209028,145.43084562055893,1745594352.7599301
469,1,1,8,593,15,-0.9892578125,1.53125,0.07470703125,5.79833984375,28.564453125,-127.50244140625,-18.465912350140538,-88.83848161532725,145.43084562055893,1745594352.841772
470,1,1,8,608,15,0.087890625,1.3828125,0.02099609375,2.01416015625,-65.24658203125,-124.81689453125,-22.956533585728216,-66.38537543738886,155.96197085657457,1745594352.8490615
471,1,1,8,623,15,-0.02392578125,1.0283203125,-0.259765625,1.220703125,-70.9228515625,-111.572265625,-4.994048643377503,-72.37287041817243,149.94418500742276,1745594352.8555677
472,1,1,8,638,15,0.13916015625,0.95458984375,-0.36279296875,-4.150390625,-59.14306640625,-95.88623046875,-24.45340733092411,-100.81347157689439,157.4664173188625,1745594352.8620236
473,1,1,8,653,15,0.23095703125,0.99365234375,-0.2724609375,-12.5732421875,-51.08642578125,-85.26611328125,-18.465912350140538,-99.3165978316985,151.4486314697107,1745594352.8685236
474,1,1,8,668,15,0.22314453125,1.0888671875,-0.1787109375,-11.962890625,-23.74267578125,-74.951171875,-15.472164859748752,-102.31034532209028,169.50198901716607,1745594352.8749726
475,1,1,8,683,15,0.0068359375,0.99169921875,-0.11328125,-8.1787109375,-0.8544921875,-70.80078125,-16.969038604944643,-97.81972408650262,154.4575243942866,1745594352.8814633
476,1,1,8,698,15,-0.07080078125,0.99853515625,-0.1416015625,-4.57763671875,-5.2490234375,-62.43896484375,-15.472164859748752,-114.28533528365743,148.43973854513484,1745594352.887956
477,1,1,8,713,15,-0.115234375,1.0537109375,-0.19189453125,-4.82177734375,-24.71923828125,-54.19921875,-12.478417369356967,-109.79471404806975,145.43084562055893,1745594352.8998148
478,1,1,8,728,15,-0.02099609375,1.056640625,-0.28857421875,-6.4697265625,-44.189453125,-48.27880859375,-16.969038604944643,-115.78220902885332,157.4664173188625,1745594352.9063392
479,1,1,8,743,15,0.12060546875,1.03564453125,-0.27001953125,-7.8125,-46.7529296875,-45.83740234375,-21.45965984053232,-115.78220902885332,149.94418500742276,1745594352.9128082
480,1,1,8,758,15,0.17431640625,1.025390625,-0.2138671875,-10.498046875,-33.14208984375,-49.9267578125,-16.969038604944643,-133.74469397120401,160.4753102434384,1745594352.9193118
481,1,1,8,773,15,0.13037109375,0.98291015625,-0.22802734375,-12.3291015625,-20.20263671875,-56.396484375,-16.969038604944643,-133.74469397120401,143.926399158271,1745594352.9312565
482,1,1,8,788,15,0.03125,1.029296875,-0.19384765625,-16.05224609375,-12.8173828125,-61.21826171875,-22.956533585728216,-127.75719899042046,151.4486314697107,1745594352.9377866
483,1,1,8,803,15,-0.01708984375,1.03662109375,-0.1826171875,-18.00537109375,-14.892578125,-62.98828125,-22.956533585728216,-127.75719899042046,161.97975670572634,1745594352.94424
484,1,1,8,818,15,-0.048828125,1.0361328125,-0.15478515625,-18.49365234375,-17.4560546875,-62.43896484375,-16.969038604944643,-129.25407273561638,157.4664173188625,1745594352.9507291
485,1,1,8,833,15,-0.0380859375,1.0419921875,-0.14208984375,-18.61572265625,-16.54052734375,-61.46240234375,-33.434649802099464,-135.2415677163999,166.49309609259018,1745594352.9572055
486,1,1,8,848,15,-0.04931640625,1.05078125,-0.1328125,-17.4560546875,-13.48876953125,-60.4248046875,-12.478417369356967,-138.23531520679174,158.97086378115046,1745594352.9636567
487,1,1,8,863,15,-0.07373046875,1.04931640625,-0.12744140625,-16.7236328125,-11.90185546875,-59.38720703125,-31.937776056903573,-129.25407273561638,146.93529208284687,1745594352.9701402
488,1,1,8,878,15,-0.083984375,1.05419921875,-0.16162109375,-17.2119140625,-12.39013671875,-58.349609375,-22.956533585728216,-138.23531520679174,148.43973854513484,1745594352.9766436
489,1,1,8,893,15,-0.1005859375,1.05908203125,-0.18017578125,-17.02880859375,-13.61083984375,-57.06787109375,-36.428397292491255,-145.71968393277118,161.97975670572634,1745594352.9830873
490,1,1,8,908,15,-0.10107421875,1.029296875,-0.16064453125,-15.9912109375,-16.7236328125,-56.640625,-25.950281076120003,-142.72593644237938,148.43973854513484,1745594352.989556
491,1,1,8,923,15,-0.1123046875,1.0341796875,-0.1689453125,-16.41845703125,-18.61572265625,-55.96923828125,-21.45965984053232,-139.7321889519876,149.94418500742276,1745594352.99604
492,1,1,8,938,15,-0.09619140625,1.03466796875,-0.162109375,-17.2119140625,-21.54541015625,-57.06787109375,-34.931523547295356,-151.70717891355474,133.39527392225537,1745594353.003278
493,1,1,8,953,15,-0.07666015625,1.0595703125,-0.1591796875,-18.85986328125,-24.658203125,-60.05859375,-33.434649802099464,-148.71343142316294,158.97086378115046,1745594353.0418806
494,1,1,8,968,15,-0.02685546875,1.07568359375,-0.16259765625,-20.81298828125,-26.85546875,-64.697265625,-25.950281076120003,-148.71343142316294,151.4486314697107,1745594353.0483978
495,1,1,8,983,15,-0.02978515625,1.0654296875,-0.15380859375,-23.74267578125,-25.390625,-71.35009765625,-36.428397292491255,-148.71343142316294,134.8997203845433,1745594353.0548553
496,1,1,8,998,15,-0.025390625,1.0849609375,-0.1103515625,-27.03857421875,-26.123046875,-80.26123046875,-45.409639763666604,-157.69467389433834,143.926399158271,1745594353.1277108
497,1,1,9,13,15,0.01025390625,1.14501953125,-0.091796875,-32.71484375,-21.54541015625,-89.66064453125,-37.925271037687146,-157.69467389433834,139.41305977140715,1745594353.1501899
498,1,1,9,28,15,0.02880859375,1.19921875,-0.10205078125,-37.59765625,-15.5029296875,-99.30419921875,-40.91901852807893,-160.6884213847301,151.4486314697107,1745594353.1567147
499,1,1,9,43,15,0.048828125,1.21484375,-0.1015625,-39.73388671875,-11.71875,-108.3984375,-46.9065135088625,-156.19780014914244,137.9086133091192,1745594353.1631756
500,1,1,9,58,15,0.0478515625,1.1904296875,-0.08154296875,-41.32080078125,-11.04736328125,-118.46923828125,-43.91276601847071,-156.19780014914244,142.42195269598304,1745594353.169672
501,1,1,9,73,15,0.134765625,1.2060546875,-0.17529296875,-45.10498046875,-14.22119140625,-132.26318359375,-42.41589227327482,-172.66341134629724,154.4575243942866,1745594353.1761763
502,1,1,9,88,15,0.25390625,1.357421875,-0.20751953125,-50.4150390625,-21.484375,-149.90234375,-42.41589227327482,-157.69467389433834,143.926399158271,1745594353.1826434
503,1,1,9,103,15,0.48876953125,1.7587890625,-0.27880859375,-67.138671875,-28.9306640625,-169.61669921875,-45.409639763666604,-162.18529512992598,149.94418500742276,1745594353.199722
504,1,1,9,118,15,0.4453125,2.02978515625,-0.35888671875,-76.11083984375,-59.326171875,-176.513671875,-55.88775598003785,-162.18529512992598,146.93529208284687,1745594353.2113662
505,1,1,9,133,15,0.78076171875,2.1328125,-0.30859375,-81.35986328125,-132.4462890625,-176.08642578125,-45.409639763666604,-165.1790426203178,157.4664173188625,1745594353.2178626
506,1,1,9,148,15,0.458984375,1.62109375,0.16748046875,-76.2939453125,-115.966796875,-187.19482421875,-49.90026099925429,-169.66966385590547,146.93529208284687,1745594353.2243145
507,1,1,9,163,15,-0.36962890625,1.86328125,-0.17236328125,-40.83251953125,19.34814453125,-221.435546875,-45.409639763666604,-165.1790426203178,128.88193453539154,1745594353.2309103
508,1,1,9,178,15,-0.2685546875,1.7919921875,-0.060546875,-40.4052734375,70.49560546875,-213.56201171875,-60.37837721562554,-154.70092640394654,136.40416684683126,1745594353.2374108
509,1,1,9,193,15,-0.3271484375,1.41943359375,-0.3779296875,-31.31103515625,33.69140625,-193.359375,-60.37837721562554,-154.70092640394654,133.39527392225537,1745594353.2496426
510,1,1,9,208,15,-0.40576171875,1.24853515625,-0.65283203125,-41.1376953125,-48.7060546875,-169.0673828125,-52.89400848964607,-151.70717891355474,133.39527392225537,1745594353.256156
511,1,1,9,223,15,-0.39013671875,1.12109375,-0.46533203125,-40.22216796875,-96.435546875,-118.408203125,-55.88775598003785,-147.21655767796707,125.87304161081563,1745594353.2626054
512,1,1,9,238,15,-0.11181640625,0.69970703125,-0.40234375,-36.376953125,-100.40283203125,-79.40673828125,-45.409639763666604,-144.22281018757528,143.926399158271,1745594353.2691078
513,1,1,9,253,15,0.2939453125,0.3642578125,-0.1357421875,-30.09033203125,-87.5244140625,-24.4140625,-63.37212470601732,-136.73844146159584,128.88193453539154,1745594353.2755883
514,1,1,9,268,15,0.3916015625,0.3056640625,0.07666015625,-16.78466796875,-69.27490234375,8.30078125,-57.38462972523375,-148.71343142316294,145.43084562055893,1745594353.2820344
515,1,1,9,283,15,0.16796875,0.173828125,0.1181640625,-7.14111328125,-38.9404296875,45.47119140625,-52.89400848964607,-123.26657775483278,154.4575243942866,1745594353.3190145
516,1,1,9,298,15,0.15234375,0.1142578125,0.12060546875,4.21142578125,-21.54541015625,73.486328125,-45.409639763666604,-118.77595651924511,154.4575243942866,1745594353.3255298
517,1,1,9,313,15,0.19189453125,0.123046875,0.041015625,12.63427734375,17.333984375,101.01318359375,-55.88775598003785,-111.29158779326563,157.4664173188625,1745594353.3320549
518,1,1,9,328,15,0.203125,0.1123046875,-0.02099609375,20.01953125,51.69677734375,136.8408203125,-55.88775598003785,-100.81347157689439,160.4753102434384,1745594353.3385336
519,1,1,9,343,15,0.12158203125,0.13525390625,-0.11328125,26.85546875,82.70263671875,170.95947265625,-60.37837721562554,-82.85098663454367,163.4842031680143,1745594353.3449824
520,1,1,9,358,15,0.1162109375,0.18701171875,-0.18115234375,29.84619140625,97.900390625,205.62744140625,-52.89400848964607,-61.894754201801184,143.926399158271,1745594353.3514788
521,1,1,9,373,15,0.1142578125,0.35986328125,-0.1552734375,32.65380859375,93.017578125,237.79296875,-54.39088223484197,-51.41663798542993,151.4486314697107,1745594353.3579743
522,1,1,9,388,15,0.01025390625,0.53955078125,-0.14990234375,32.958984375,70.4345703125,262.5732421875,-72.35336717719268,-33.454153043079216,158.97086378115046,1745594353.3729553
523,1,1,9,403,15,-0.04638671875,0.7744140625,-0.123046875,39.306640625,46.142578125,282.1044921875,-70.85649343199678,-6.510425629553148,139.41305977140715,1745594353.3795109
524,1,1,9,418,15,-0.16357421875,0.9541015625,-0.125,43.76220703125,27.7099609375,302.734375,-84.32835713875981,5.464564332013994,163.4842031680143,1745594353.386008
525,1,1,9,433,15,-0.2216796875,1.08447265625,-0.10888671875,46.630859375,4.2724609375,322.3876953125,-114.26583204267767,35.40203923593186,155.96197085657457,1745594353.392456
526,1,1,9,448,15,-0.2216796875,1.25634765625,-0.08251953125,45.59326171875,-31.1279296875,334.228515625,-127.7376957494407,26.420796764756492,167.99754255487815,1745594353.3990767
527,1,1,9,463,15,-0.27685546875,1.35302734375,-0.1376953125,46.7529296875,-72.81494140625,334.28955078125,-153.18454941777088,45.8801554523031,161.97975670572634,1745594353.405563
528,1,1,9,478,15,-0.298828125,1.482421875,-0.255859375,63.96484375,-115.8447265625,334.3505859375,-172.64390810531748,36.898912981127744,174.0153284040299,1745594353.4120085
529,1,1,9,493,15,-0.2080078125,1.67578125,-0.37158203125,89.29443359375,-142.39501953125,342.4072265625,-195.0970142832559,36.898912981127744,181.53756071546965,1745594353.4186513
530,1,1,9,508,15,-0.09912109375,1.92529296875,-0.37255859375,118.5302734375,-147.88818359375,343.017578125,-225.03448918717373,48.87390294269489,186.0509001023335,1745594353.4792953
531,1,1,9,523,15,-0.2353515625,2.1962890625,-0.2607421875,148.13232421875,-123.046875,330.50537109375,-278.92194401422586,5.464564332013994,192.06868595148526,1745594353.4858067
532,1,1,9,538,15,-0.40087890625,2.33203125,-0.06787109375,175.537109375,-59.4482421875,304.931640625,-266.9469540526587,2.4708168416222125,193.5731324137732,1745594353.4922583
533,1,1,9,553,15,-0.81103515625,2.41748046875,0.5556640625,160.2783203125,-10.6201171875,275.93994140625,-311.85316640853557,-27.466658062295643,184.54645364004554,1745594353.5038548
534,1,1,9,568,15,-0.9189453125,2.1064453125,0.72314453125,131.65283203125,34.36279296875,237.73193359375,-310.3562926633397,-39.44164802386278,183.04200717775757,1745594353.5103476
535,1,1,9,583,15,-2.4052734375,1.95947265625,0.96826171875,94.482421875,43.15185546875,168.3349609375,-337.30002007686574,-60.397880456605286,186.0509001023335,1745594353.5219648
536,1,1,9,598,15,-2.74609375,1.2158203125,0.45458984375,38.51318359375,-0.8544921875,49.74365234375,-359.7531262548041,-70.87599667297654,186.0509001023335,1745594353.6188812
537,1,1,9,613,15,-1.546875,1.23193359375,0.185546875,17.4560546875,-7.8125,-81.0546875,-359.7531262548041,-70.87599667297654,158.97086378115046,1745594353.6254108
538,1,1,9,628,15,-1.1630859375,1.37451171875,0.3642578125,2.5634765625,22.15576171875,-146.484375,-373.22498996156713,-78.360365398956,175.51977486631785,1745594353.6319382
539,1,1,9,643,15,-0.43115234375,1.06982421875,0.08740234375,-7.38525390625,34.5458984375,-140.5029296875,-371.72811621637123,-61.894754201801184,178.52866779089373,1745594353.6711395
540,1,1,9,658,15,2.36767578125,0.81640625,-1.353515625,37.17041015625,152.77099609375,-77.45361328125,-352.2687575288246,-60.397880456605286,166.49309609259018,1745594353.6776521
541,1,1,9,673,15,1.2138671875,2.14453125,0.513671875,9.1552734375,148.74267578125,-93.07861328125,-362.74687374519584,-39.44164802386278,166.49309609259018,1745594353.6841075
542,1,1,9,688,15,-0.78955078125,1.45703125,0.56787109375,19.287109375,230.89599609375,-162.90283203125,-365.7406212355877,-43.932269259450464,155.96197085657457,1745594353.6906078
543,1,1,9,703,15,-0.13525390625,1.02490234375,0.056640625,26.4892578125,191.58935546875,-132.568359375,-368.7343687259795,-19.982289336316178,133.39527392225537,1745594353.6971116
544,1,1,9,718,15,-1.35546875,1.64208984375,0.71630859375,-2.99072265625,66.162109375,-126.89208984375,-374.72186370676303,-12.497920610336719,149.94418500742276,1745594353.7093663
545,1,1,9,733,15,-0.09619140625,1.908203125,0.4482421875,-22.3388671875,-100.52490234375,-157.2265625,-359.7531262548041,17.439554293581136,134.8997203845433,1745594353.7158616
546,1,1,9,748,15,0.603515625,1.19384765625,-0.05859375,-1.0986328125,-78.0029296875,-126.64794921875,-362.74687374519584,27.91767050995239,148.43973854513484,1745594353.7223103
547,1,1,9,763,15,-0.033203125,0.85546875,-0.408203125,-0.42724609375,-49.37744140625,-111.9384765625,-349.27501003843287,24.923923019560604,134.8997203845433,1745594353.7288322
548,1,1,9,778,15,0.205078125,0.8623046875,-0.30029296875,-10.009765625,-53.22265625,-104.06494140625,-341.7906413124534,24.923923019560604,155.96197085657457,1745594353.7353435
549,1,1,9,793,15,0.05859375,0.966796875,-0.22607421875,-11.1083984375,-16.11328125,-82.6416015625,-344.78438880284517,17.439554293581136,148.43973854513484,1745594353.75222
550,1,1,9,808,15,-0.06103515625,0.9814453125,-0.248046875,-11.65771484375,-7.32421875,-71.71630859375,-340.29376756725753,21.930175529168814,160.4753102434384,1745594353.7592125
551,1,1,9,823,15,-0.1201171875,1.0517578125,-0.17529296875,-8.97216796875,-22.64404296875,-61.279296875,-334.3062725864739,30.911418000344167,158.97086378115046,1745594353.7658055
552,1,1,9,838,15,-0.0498046875,1.04638671875,-0.10986328125,-6.9580078125,-31.67724609375,-50.78125,-341.7906413124534,48.87390294269489,145.43084562055893,1745594353.7724276
553,1,1,9,853,15,-0.013671875,1.06787109375,-0.12255859375,-4.8828125,-30.70068359375,-43.212890625,-335.80314633166984,21.930175529168814,157.4664173188625,1745594353.778995
554,1,1,9,868,15,0.013671875,1.09814453125,-0.29833984375,-4.0283203125,-29.47998046875,-35.400390625,-332.809398841278,29.41454425514828,146.93529208284687,1745594353.785493
555,1,1,9,883,15,0.08544921875,1.076171875,-0.2783203125,-4.150390625,-36.43798828125,-31.6162109375,-335.80314633166984,21.930175529168814,149.94418500742276,1745594353.7919588
556,1,1,9,898,15,0.15625,0.9912109375,-0.1865234375,-6.28662109375,-32.40966796875,-34.48486328125,-323.82815637010265,42.886407961911324,151.4486314697107,1745594353.7984703
557,1,1,9,913,15,0.1337890625,0.97705078125,-0.13671875,-9.3994140625,-22.03369140625,-42.90771484375,-322.3312826249068,33.90516549073595,157.4664173188625,1745594353.8049285
558,1,1,9,928,15,0.1064453125,0.994140625,-0.15673828125,-14.22119140625,-13.12255859375,-51.513671875,-322.3312826249068,33.90516549073595,157.4664173188625,1745594353.8114262
559,1,1,9,943,15,0.06640625,1.005859375,-0.1845703125,-16.6015625,-8.23974609375,-58.349609375,-311.85316640853557,33.90516549073595,167.99754255487815,1745594353.8920074
560,1,1,9,958,15,0.021484375,1.0224609375,-0.2060546875,-17.63916015625,-5.859375,-62.07275390625,-314.8469138989273,26.420796764756492,157.4664173188625,1745594353.8985777
561,1,1,9,973,15,-0.05078125,1.03564453125,-0.201171875,-18.12744140625,-5.615234375,-62.43896484375,-317.8406613893191,44.38328170710721,160.4753102434384,1745594353.9050732
562,1,1,9,988,15,-0.0751953125,1.015625,-0.16650390625,-18.6767578125,-10.7421875,-61.5234375,-301.3750501921643,33.90516549073595,163.4842031680143,1745594353.9171593
563,1,1,10,3,15,-0.09130859375,0.9697265625,-0.02734375,-23.8037109375,-17.15087890625,-56.70166015625,-307.3625451729478,44.38328170710721,167.99754255487815,1745594353.9236274
564,1,1,10,18,15,-0.0849609375,1.05224609375,-0.15966796875,-16.29638671875,-11.3525390625,-57.9833984375,-302.8719239373602,30.911418000344167,166.49309609259018,1745594353.9302623
565,1,1,10,33,15,-0.09130859375,1.02587890625,-0.14208984375,-18.24951171875,-15.2587890625,-57.67822265625,-301.3750501921643,44.38328170710721,174.0153284040299,1745594353.9367583
566,1,1,10,48,15,-0.12646484375,1.01953125,-0.15234375,-16.9677734375,-17.2119140625,-56.33544921875,-302.8719239373602,30.911418000344167,166.49309609259018,1745594353.9545774
567,1,1,10,63,15,-0.1142578125,1.02490234375,-0.16455078125,-16.357421875,-19.6533203125,-56.21337890625,-293.8906814661848,39.892660471519534,160.4753102434384,1745594353.9610724
568,1,1,10,78,15,-0.1083984375,1.0517578125,-0.1806640625,-16.4794921875,-24.71923828125,-56.70166015625,-301.3750501921643,47.377029197499,181.53756071546965,1745594353.9675522
569,1,1,10,93,15,-0.07275390625,1.04931640625,-0.158203125,-18.00537109375,-29.96826171875,-59.38720703125,-283.4125652498136,54.86139792347845,167.99754255487815,1745594353.9739964
570,1,1,10,108,15,-0.03662109375,1.0673828125,-0.1435546875,-21.05712890625,-29.23583984375,-64.208984375,-283.4125652498136,51.86765043308668,171.006435479454,1745594353.9804711
571,1,1,10,123,15,-0.03125,1.091796875,-0.13623046875,-24.2919921875,-27.587890625,-70.4345703125,-290.89693397579305,54.86139792347845,178.52866779089373,1745594353.9869442
572,1,1,10,138,15,-0.02392578125,1.103515625,-0.09716796875,-27.587890625,-26.42822265625,-77.81982421875,-278.92194401422586,57.85514541387024,184.54645364004554,1745594353.9933972
573,1,1,10,153,15,0.0,1.16162109375,-0.078125,-33.0810546875,-21.91162109375,-85.99853515625,-277.42507026902996,45.8801554523031,180.03311425318168,1745594354.000851
574,1,1,10,168,15,0.017578125,1.1923828125,-0.0859375,-38.26904296875,-16.2353515625,-94.6044921875,-269.9407015430505,42.886407961911324,183.04200717775757,1745594354.0073905
575,1,1,10,183,15,0.0537109375,1.20556640625,-0.06005859375,-41.9921875,-11.474609375,-103.57666015625,-259.4625853266793,60.84889290426203,180.03311425318168,1745594354.013849
576,1,1,10,198,15,0.0830078125,1.21484375,-0.10302734375,-46.142578125,-3.173828125,-113.58642578125,-259.4625853266793,38.395786726323635,190.56423948919732,1745594354.0203598
577,1,1,10,213,15,0.091796875,1.21484375,-0.1435546875,-49.13330078125,0.6103515625,-125.67138671875,-257.9657115814834,65.33951413984971,184.54645364004554,1745594354.0558548
578,1,1,10,228,15,0.1572265625,1.2783203125,-0.1611328125,-52.42919921875,-4.8828125,-139.83154296875,-254.9719640910916,62.345766649457914,181.53756071546965,1745594354.0623245
579,1,1,10,243,15,0.36083984375,1.58056640625,-0.16845703125,-62.3779296875,-12.63427734375,-157.28759765625,-240.00322663913266,72.82388286582916,181.53756071546965,1745594354.123585
580,1,1,10,258,15,0.52197265625,1.8994140625,-0.27197265625,-78.369140625,-24.7802734375,-168.8232421875,-244.49384787472036,57.85514541387024,184.54645364004554,1745594354.1302853
581,1,1,10,273,15,0.27490234375,2.12744140625,-0.19482421875,-75.1953125,-70.98388671875,-167.48046875,-235.512605403545,60.84889290426203,175.51977486631785,1745594354.1368134
582,1,1,10,288,15,0.40478515625,1.96142578125,0.0244140625,-79.2236328125,-134.033203125,-179.01611328125,-219.0469942063902,62.345766649457914,181.53756071546965,1745594354.1432786
583,1,1,10,303,15,0.2919921875,1.6982421875,-0.35595703125,-51.81884765625,-64.697265625,-206.35986328125,-201.08450926403944,51.86765043308668,184.54645364004554,1745594354.1498685
584,1,1,10,318,15,0.09912109375,1.87158203125,-0.20556640625,-40.283203125,46.142578125,-215.8203125,-204.07825675443127,53.364524178282565,201.09536472521296,1745594354.1563668
585,1,1,10,333,15,-0.15673828125,1.4931640625,-0.33935546875,-41.748046875,65.24658203125,-199.70703125,-181.62515057649284,66.83638788504561,190.56423948919732,1745594354.1628418
586,1,1,10,348,15,-0.30419921875,1.28857421875,-0.54296875,-29.11376953125,21.78955078125,-171.69189453125,-187.6126455572764,75.81763035622096,205.6087041120768,1745594354.1745985
587,1,1,10,363,15,-0.48828125,1.13623046875,-0.4619140625,-40.52734375,-52.30712890625,-139.70947265625,-175.6376555957093,74.32075661102506,201.09536472521296,1745594354.1813176
588,1,1,10,378,15,-0.4404296875,0.97705078125,-0.5,-34.72900390625,-101.1962890625,-95.21484375,-175.6376555957093,92.28324155337577,196.58202533834913,1745594354.1878002
589,1,1,10,393,15,0.1162109375,0.5048828125,-0.19580078125,-39.97802734375,-116.3330078125,-43.39599609375,-169.6501606149257,72.82388286582916,202.59981118750088,1745594354.1942616
590,1,1,10,408,15,0.53515625,0.2451171875,-0.22802734375,-23.49853515625,-87.95166015625,4.82177734375,-160.66891814375037,66.83638788504561,201.09536472521296,1745594354.2007701
591,1,1,10,423,15,0.36474609375,0.2255859375,0.00439453125,-15.31982421875,-32.3486328125,37.841796875,-180.12827683129697,62.345766649457914,205.6087041120768,1745594354.2072642
592,1,1,10,438,15,0.072265625,0.1328125,0.0595703125,-1.77001953125,-2.5634765625,65.00244140625,-181.62515057649284,53.364524178282565,210.12204349894063,1745594354.2137299
593,1,1,10,453,15,0.00732421875,0.1669921875,0.01904296875,5.4931640625,8.30078125,92.28515625,-201.08450926403944,65.33951413984971,229.67984750868393,1745594354.220227
594,1,1,10,468,15,0.0986328125,0.15576171875,-0.06884765625,10.6201171875,21.1181640625,122.314453125,-199.58763551884357,56.358271668674355,220.65316873495624,1745594354.2279153
595,1,1,10,483,15,0.1552734375,0.14794921875,-0.107421875,18.24951171875,46.2646484375,158.3251953125,-220.54386795158607,56.358271668674355,217.64427581038035,1745594354.257861
596,1,1,10,498,15,0.1298828125,0.1923828125,-0.11279296875,22.8271484375,68.29833984375,191.95556640625,-228.02823667756553,53.364524178282565,228.17540104639596,1745594354.2643387
597,1,1,10,513,15,0.11328125,0.2802734375,-0.11767578125,26.3671875,76.171875,224.7314453125,-245.99072161991626,48.87390294269489,207.11315057436474,1745594354.2708392
598,1,1,10,528,15,0.072265625,0.4326171875,-0.14111328125,29.23583984375,71.77734375,250.06103515625,-268.4438277978546,57.85514541387024,223.66206165953213,1745594354.2773514
599,1,1,10,543,15,-0.0087890625,0.61083984375,-0.16748046875,35.15625,55.96923828125,276.42822265625,-281.9156915046177,63.84264039465382,207.11315057436474,1745594354.283811
600,1,1,10,558,15,-0.07666015625,0.8037109375,-0.17919921875,42.90771484375,31.79931640625,298.27880859375,-302.8719239373602,48.87390294269489,220.65316873495624,1745594354.330928
601,1,1,10,573,15,-0.16796875,1.03857421875,-0.12158203125,48.4619140625,4.5166015625,312.98828125,-305.8656714277519,42.886407961911324,204.10425764978882,1745594354.3591657
602,1,1,10,588,15,-0.27001953125,1.27392578125,-0.0478515625,53.52783203125,-23.13232421875,324.951171875,-341.7906413124534,30.911418000344167,217.64427581038035,1745594354.3656995
603,1,1,10,603,15,-0.27685546875,1.3779296875,-0.01513671875,54.74853515625,-50.72021484375,327.2705078125,-356.7593787644123,29.41454425514828,223.66206165953213,1745594354.373171
604,1,1,10,618,15,-0.26171875,1.52685546875,-0.0341796875,62.3779296875,-75.50048828125,324.76806640625,-374.72186370676303,-12.497920610336719,216.1398293480924,1745594354.3796675
605,1,1,10,633,15,-0.2685546875,1.68896484375,-0.09765625,79.65087890625,-70.556640625,325.86669921875,-389.6906011587219,-9.50417311994493,223.66206165953213,1745594354.3861623
606,1,1,10,648,15,-0.35400390625,1.8662109375,-0.20263671875,101.50146484375,-33.50830078125,324.8291015625,-407.6530861010727,-55.907259221017604,219.1487222726683,1745594354.3926272
607,1,1,10,663,15,-0.56396484375,1.96826171875,-0.30908203125,122.314453125,24.71923828125,313.8427734375,-422.6218235530316,-73.86974416336832,225.1665081218201,1745594354.3991
608,1,1,10,678,15,-0.89306640625,2.13818359375,-0.2724609375,140.2587890625,89.111328125,290.1611328125,-446.5718034761659,-105.30409281248207,213.13093642351652,1745594354.4059412
609,1,1,10,693,15,-1.25537109375,2.22314453125,0.0517578125,140.5029296875,121.76513671875,256.40869140625,-448.0686772213618,-138.23531520679174,225.1665081218201,1745594354.421485
610,1,1,10,708,15,-1.48779296875,2.1123046875,0.36962890625,118.0419921875,107.177734375,212.70751953125,-478.00615212527964,-165.1790426203178,198.08647180063704,1745594354.4332578
611,1,1,10,723,15,-1.94921875,1.78466796875,0.31640625,86.60888671875,55.96923828125,155.09033203125,-479.50302587047554,-148.71343142316294,193.5731324137732,1745594354.4397783
612,1,1,10,738,15,-2.4521484375,1.4892578125,0.283203125,61.6455078125,-21.05712890625,83.6181640625,-491.4780158320427,-172.66341134629724,192.06868595148526,1745594354.4462595
613,1,1,10,753,15,-2.177734375,1.3369140625,0.3349609375,32.470703125,-76.35498046875,-2.74658203125,-497.4655108128262,-192.12277003384384,172.51088194174199,1745594354.452717
614,1,1,10,768,15,-1.34716796875,1.31982421875,0.39453125,11.29150390625,-75.37841796875,-79.89501953125,-495.9686370676303,-222.06024493776172,174.0153284040299,1745594354.459192
615,1,1,10,783,15,-0.32958984375,1.13427734375,-0.27880859375,-4.8828125,-37.59765625,-120.66650390625,-489.9811420868468,-210.08525497619456,161.97975670572634,1745594354.4685984
616,1,1,10,798,15,3.13427734375,1.23486328125,-0.62353515625,29.296875,64.208984375,-73.18115234375,-528.89985946194,-199.60713875982333,169.50198901716607,1745594354.475205
617,1,1,10,813,15,0.875,1.482421875,0.5322265625,0.6103515625,103.02734375,-86.24267578125,-516.9248695003729,-193.61964377903976,171.006435479454,1745594354.4817314
618,1,1,10,828,15,-1.10546875,1.30078125,-0.0732421875,33.38623046875,186.82861328125,-145.44677734375,-518.4217432455688,-192.12277003384384,166.49309609259018,1745594354.488251
619,1,1,10,843,15,-0.60693359375,1.45361328125,0.421875,16.66259765625,119.2626953125,-129.69970703125,-525.9061119715482,-163.68216887512187,155.96197085657457,1745594354.494811
620,1,1,10,858,15,-0.62548828125,1.6923828125,0.32177734375,-2.62451171875,4.69970703125,-127.99072265625,-522.9123644811564,-124.76345150002867,161.97975670572634,1745594354.5013406
621,1,1,10,873,15,0.16015625,1.4580078125,0.07861328125,1.46484375,-71.71630859375,-121.337890625,-533.3904806975277,-127.75719899042046,166.49309609259018,1745594354.5078597
622,1,1,10,888,15,0.14404296875,0.890625,-0.33056640625,2.74658203125,-75.62255859375,-110.16845703125,-510.9373745195893,-114.28533528365743,155.96197085657457,1745594354.514334
623,1,1,10,903,15,0.212890625,0.90087890625,-0.35986328125,-5.0048828125,-57.0068359375,-97.5341796875,-522.9123644811564,-117.27908277404921,183.04200717775757,1745594354.5208344
624,1,1,10,918,15,0.244140625,1.00537109375,-0.2998046875,-10.92529296875,-26.611328125,-85.0830078125,-504.9498795388057,-106.80096655767797,175.51977486631785,1745594354.527392
625,1,1,10,933,15,0.0771484375,1.07373046875,-0.2177734375,-13.48876953125,-10.498046875,-79.2236328125,-513.9311220099811,-105.30409281248207,160.4753102434384,1745594354.5340858
626,1,1,10,948,15,0.05859375,0.9931640625,-0.12646484375,-11.04736328125,-10.92529296875,-73.42529296875,-519.9186169907647,-105.30409281248207,178.52866779089373,1745594354.5406063
627,1,1,10,963,15,-0.0302734375,1.00439453125,-0.09521484375,-9.33837890625,-7.2021484375,-67.87109375,-507.9436270291975,-78.360365398956,166.49309609259018,1745594354.5471303
628,1,1,10,978,15,-0.04052734375,1.0615234375,-0.19091796875,-8.544921875,-18.1884765625,-63.04931640625,-525.9061119715482,-78.360365398956,155.96197085657457,1745594354.553609
629,1,1,10,993,15,0.01806640625,1.052734375,-0.265625,-9.033203125,-31.1279296875,-57.373046875,-516.9248695003729,-72.37287041817243,181.53756071546965,1745594354.5601285
630,1,1,11,8,15,0.09619140625,1.03564453125,-0.23779296875,-10.3759765625,-29.1748046875,-53.52783203125,-515.427995755177,-73.86974416336832,172.51088194174199,1745594354.566634
631,1,1,11,23,15,0.13330078125,1.017578125,-0.18994140625,-11.41357421875,-21.05712890625,-55.96923828125,-494.47176332243447,-57.4041329662135,175.51977486631785,1745594354.573104
632,1,1,11,38,15,0.123046875,1.02490234375,-0.154296875,-13.24462890625,-12.6953125,-61.46240234375,-513.9311220099811,-58.901006711409394,171.006435479454,1745594354.5796206
633,1,1,11,53,15,0.02197265625,1.01708984375,-0.134765625,-15.13671875,-7.62939453125,-64.94140625,-510.9373745195893,-54.41038547582172,175.51977486631785,1745594354.5864763
634,1,1,11,68,15,-0.02734375,1.01806640625,-0.1494140625,-16.66259765625,-7.568359375,-66.5283203125,-500.459258303218,-57.4041329662135,175.51977486631785,1745594354.60757
635,1,1,11,83,15,-0.0654296875,1.0146484375,-0.17041015625,-16.90673828125,-7.9345703125,-65.12451171875,-503.4530057936098,-55.907259221017604,181.53756071546965,1745594354.614066
636,1,1,11,98,15,-0.068359375,1.0029296875,-0.1875,-16.29638671875,-8.9111328125,-63.232421875,-488.4842683416509,-52.91351173062582,178.52866779089373,1745594354.6205795
637,1,1,11,113,15,-0.0830078125,1.0400390625,-0.19775390625,-16.4794921875,-7.2021484375,-60.6689453125,-497.4655108128262,-25.969784317099755,190.56423948919732,1745594354.6271186
638,1,1,11,128,15,-0.08154296875,1.05517578125,-0.208984375,-15.31982421875,-8.60595703125,-58.4716796875,-486.987394596455,-25.969784317099755,190.56423948919732,1745594354.6336024
639,1,1,11,143,15,-0.111328125,1.05224609375,-0.18017578125,-13.7939453125,-11.5966796875,-56.5185546875,-485.4905208512591,-30.460405552687433,192.06868595148526,1745594354.640382
640,1,1,11,158,15,-0.11669921875,1.05322265625,-0.16259765625,-13.73291015625,-16.66259765625,-54.5654296875,-495.9686370676303,-24.47291057190386,181.53756071546965,1745594354.6475685
641,1,1,11,173,15,-0.11376953125,1.06298828125,-0.1328125,-14.2822265625,-19.83642578125,-52.6123046875,-486.987394596455,-28.963531807491538,196.58202533834913,1745594354.6541436
642,1,1,11,188,15,-0.0966796875,1.04296875,-0.099609375,-15.380859375,-23.13232421875,-52.06298828125,-485.4905208512591,-16.988541845924395,198.08647180063704,1745594354.660649
643,1,1,11,203,15,-0.04638671875,1.06591796875,-0.125,-17.7001953125,-25.5126953125,-54.50439453125,-480.99989961567144,-9.50417311994493,195.07757887606115,1745594354.6671522
644,1,1,11,218,15,0.00341796875,1.09765625,-0.1240234375,-19.775390625,-25.7568359375,-59.63134765625,-485.4905208512591,-16.988541845924395,192.06868595148526,1745594354.6736236
645,1,1,11,233,15,0.01953125,1.09326171875,-0.07421875,-22.0947265625,-23.86474609375,-67.56591796875,-476.50927838008374,-15.491668100728502,207.11315057436474,1745594354.680147
646,1,1,11,248,15,0.02294921875,1.087890625,-0.05712890625,-25.32958984375,-18.798828125,-76.96533203125,-461.5405409281248,-8.007299374749035,207.11315057436474,1745594354.6866639
647,1,1,11,263,15,0.00732421875,1.0986328125,-0.041015625,-29.96826171875,-12.5732421875,-87.09716796875,-470.52178339930015,-2.019804393965471,202.59981118750088,1745594354.6931448
648,1,1,11,278,15,0.00439453125,1.14208984375,-0.0615234375,-35.400390625,-5.9814453125,-96.86279296875,-457.0499196925371,5.464564332013994,216.1398293480924,1745594354.6999965
649,1,1,11,293,15,-0.00244140625,1.19091796875,-0.10400390625,-39.36767578125,-4.33349609375,-105.77392578125,-470.52178339930015,-2.019804393965471,216.1398293480924,1745594354.7169156
650,1,1,11,308,15,0.02001953125,1.1806640625,-0.0908203125,-42.17529296875,-4.2724609375,-113.28125,-457.0499196925371,21.930175529168814,213.13093642351652,1745594354.7233891
651,1,1,11,323,15,0.0517578125,1.17724609375,-0.126953125,-45.5322265625,-3.2958984375,-124.08447265625,-458.546793437733,20.433301783972926,235.6976333578357,1745594354.7299445
652,1,1,11,338,15,0.1240234375,1.30224609375,-0.24658203125,-52.06298828125,-7.50732421875,-138.48876953125,-421.1249498078357,26.420796764756492,219.1487222726683,1745594354.7364597
653,1,1,11,353,15,0.27197265625,1.60400390625,-0.35888671875,-66.2841796875,-19.47021484375,-156.1279296875,-433.09993976940285,35.40203923593186,225.1665081218201,1745594354.7429185
654,1,1,11,368,15,0.3505859375,1.81494140625,-0.48583984375,-72.75390625,-46.875,-169.0673828125,-419.62807606263976,48.87390294269489,241.7154192069875,1745594354.7494028
655,1,1,11,383,15,0.26513671875,1.9462890625,-0.36962890625,-70.98388671875,-104.06494140625,-174.9267578125,-398.67184362989735,56.358271668674355,255.25543736757902,1745594354.7931452
656,1,1,11,398,15,0.92138671875,1.8662109375,-0.31982421875,-75.5615234375,-173.40087890625,-181.94580078125,-398.67184362989735,56.358271668674355,252.2465444430031,1745594354.7996585
657,1,1,11,413,15,0.2802734375,1.65234375,0.10595703125,-65.97900390625,-99.365234375,-194.7021484375,-377.71561119715483,53.364524178282565,273.30879491503435,1745594354.8061469
658,1,1,11,428,15,-0.462890625,1.9169921875,0.2236328125,-57.4951171875,14.34326171875,-217.7734375,-373.22498996156713,48.87390294269489,279.32658076418613,1745594354.8126056
659,1,1,11,443,15,-0.15087890625,1.57958984375,-0.06201171875,-53.40576171875,30.6396484375,-199.3408203125,-343.2875150576493,54.86139792347845,264.2821161413067,1745594354.8190956
660,1,1,11,458,15,-0.10986328125,1.34716796875,-0.3818359375,-33.14208984375,27.4658203125,-169.49462890625,-349.27501003843287,60.84889290426203,289.85770600020174,1745594354.8651607
661,1,1,11,473,15,-0.5146484375,1.21728515625,-0.5986328125,-42.1142578125,-46.32568359375,-142.4560546875,-337.30002007686574,81.80512533700454,297.37993831164147,1745594354.8786488
662,1,1,11,488,15,-0.51806640625,0.978515625,-0.4677734375,-37.353515625,-104.43115234375,-98.9990234375,-323.82815637010265,78.81137784661274,283.83992015105,1745594354.9103363
663,1,1,11,503,15,0.2265625,0.5380859375,-0.21875,-39.55078125,-96.49658203125,-61.6455078125,-298.3813027017725,66.83638788504561,300.3888312362174,1745594354.9304101
664,1,1,11,518,15,0.55126953125,0.26904296875,-0.1943359375,-20.56884765625,-57.861328125,0.18310546875,-307.3625451729478,47.377029197499,319.9466352459607,1745594354.9369607
665,1,1,11,533,15,0.4873046875,0.14990234375,0.0693359375,-8.9111328125,-14.46533203125,38.51318359375,-314.8469138989273,57.85514541387024,306.40661708536913,1745594354.9437585
666,1,1,11,548,15,0.2294921875,0.126953125,0.1025390625,1.15966796875,9.94873046875,65.185546875,-307.3625451729478,51.86765043308668,319.9466352459607,1745594354.9507394
667,1,1,11,563,15,0.16357421875,0.17822265625,0.09033203125,7.50732421875,18.9208984375,88.56201171875,-314.8469138989273,18.936428038777038,333.48665340655225,1745594354.9572508
668,1,1,11,578,15,0.306640625,0.18115234375,0.0732421875,11.16943359375,33.02001953125,122.314453125,-314.8469138989273,33.90516549073595,322.9555281705366,1745594354.963716
669,1,1,11,593,15,0.24072265625,0.20556640625,-0.0009765625,19.04296875,66.10107421875,156.79931640625,-322.3312826249068,29.41454425514828,322.9555281705366,1745594354.9702106
670,1,1,11,608,15,0.203125,0.24853515625,-0.07666015625,27.4658203125,86.36474609375,197.57080078125,-331.31252509608214,27.91767050995239,328.97331401968836,1745594354.976703
671,1,1,11,623,15,0.14697265625,0.359375,-0.146484375,32.77587890625,71.96044921875,230.28564453125,-346.28126254804107,26.420796764756492,322.9555281705366,1745594354.98316
672,1,1,11,638,15,0.05517578125,0.5302734375,-0.1728515625,37.41455078125,44.98291015625,261.8408203125,-346.28126254804107,26.420796764756492,330.4777604819763,1745594354.989677
673,1,1,11,653,15,-0.0126953125,0.73583984375,-0.17236328125,46.630859375,1.8310546875,289.9169921875,-365.7406212355877,9.95518556760167,324.4599746328246,1745594355.001266
674,1,1,11,668,15,-0.06689453125,0.91015625,-0.09228515625,53.89404296875,-44.00634765625,311.82861328125,-374.72186370676303,15.94268054838525,322.9555281705366,1745594355.0237877
675,1,1,11,683,15,-0.12451171875,1.10009765625,0.0244140625,61.46240234375,-76.0498046875,328.125,-401.6655911202891,-15.491668100728502,337.999992793416,1745594355.0605276
676,1,1,11,698,15,-0.091796875,1.2880859375,0.08544921875,68.17626953125,-98.9990234375,338.623046875,-413.6405810818562,-27.466658062295643,347.0266715671437,1745594355.06705
