Processed,Time(h),Time(m),Time(s),Time(ms),Delt,AccX,AccY,AccZ,GyroX,GyroY,GyroZ,MagX,MagY,MagZ,PCTimestamp
1,1,1,1,272,3661272,0.5068359375,0.8486328125,-0.21240234375,0.0,0.0,-0.1220703125,59.3715224000459,-97.81972408650262,-512.0122583992735,1741600378.6268418
2,1,1,1,287,15,0.50341796875,0.85009765625,-0.2060546875,0.0,0.0,0.244140625,80.32775483278839,-90.33535536052314,-477.40998976665077,1741600378.6332633
3,1,1,1,302,15,0.5185546875,0.85009765625,-0.216796875,0.18310546875,-0.06103515625,-0.06103515625,78.83088108759249,-81.35411288934777,-516.5255977861374,1741600378.656767
4,1,1,1,317,15,0.50927734375,0.85888671875,-0.21728515625,0.06103515625,0.0,-0.1220703125,72.84338610680892,-79.85723914415189,-498.47224023868205,1741600378.663459
5,1,1,1,332,15,0.515625,0.84716796875,-0.208984375,0.18310546875,-0.1220703125,-0.06103515625,50.390279928870534,-96.3228503413067,-502.9855796255459,1741600379.2691216
6,1,1,1,347,15,0.5078125,0.85205078125,-0.20263671875,0.06103515625,0.18310546875,-0.06103515625,86.31524981357195,-96.3228503413067,-495.4633473141061,1741600379.280928
7,1,1,1,362,15,0.50634765625,0.84765625,-0.216796875,0.06103515625,0.244140625,-0.1220703125,60.86839614524178,-99.3165978316985,-492.45445438953027,1741600379.292539
8,1,1,1,377,15,0.513671875,0.85302734375,-0.2099609375,0.06103515625,0.0,-0.1220703125,81.82462857798427,-81.35411288934777,-502.9855796255459,1741600379.2989788
9,1,1,1,392,15,0.5146484375,0.8486328125,-0.20458984375,0.1220703125,-0.1220703125,0.1220703125,66.85589112602536,-93.32910285091494,-490.9500079272423,1741600379.3053725
10,1,1,1,407,15,0.51171875,0.84912109375,-0.20458984375,0.30517578125,-0.06103515625,-0.18310546875,69.84963861641714,-90.33535536052314,-507.4989190124097,1741600379.3117917
11,1,1,1,422,15,0.5087890625,0.8525390625,-0.201171875,0.1220703125,-0.06103515625,-0.06103515625,71.34651236161304,-88.83848161532725,-505.99447255012177,1741600379.3182
12,1,1,1,437,15,0.5078125,0.85009765625,-0.2119140625,0.18310546875,-0.1220703125,-0.1220703125,54.8809011644582,-82.85098663454367,-483.4277756158026,1741600379.3245912
13,1,1,1,452,15,0.505859375,0.849609375,-0.2109375,0.06103515625,0.0,0.06103515625,69.84963861641714,-97.81972408650262,-490.9500079272423,1741600379.3313832
14,1,1,1,467,15,0.51416015625,0.85498046875,-0.212890625,0.1220703125,-0.06103515625,0.06103515625,77.3340073423966,-105.30409281248207,-498.47224023868205,1741600379.3378322
15,1,1,1,482,15,0.51123046875,0.85302734375,-0.1962890625,0.0,0.0,-0.244140625,60.86839614524178,-91.83222910571904,-499.97668670097,1741600379.3442242
16,1,1,1,497,15,0.5107421875,0.8408203125,-0.2041015625,0.0,-0.06103515625,-0.3662109375,78.83088108759249,-102.31034532209028,-481.92332915351466,1741600379.3506722
17,1,1,1,512,15,0.51123046875,0.845703125,-0.203125,0.244140625,0.0,0.1220703125,80.32775483278839,-97.81972408650262,-498.47224023868205,1741600379.3571026
18,1,1,1,527,15,0.51513671875,0.84716796875,-0.2021484375,0.1220703125,-0.06103515625,-0.18310546875,68.35276487122125,-91.83222910571904,-510.5078119369856,1741600379.363514
19,1,1,1,542,15,0.51171875,0.8466796875,-0.212890625,0.06103515625,0.06103515625,-0.1220703125,72.84338610680892,-93.32910285091494,-507.4989190124097,1741600379.3699327
20,1,1,1,557,15,0.51513671875,0.8505859375,-0.21240234375,0.0,-0.06103515625,-0.30517578125,71.34651236161304,-84.34786037973959,-489.4455614649544,1741600379.3764608
21,1,1,1,572,15,0.50732421875,0.8583984375,-0.197265625,0.0,0.0,-0.1220703125,69.84963861641714,-90.33535536052314,-504.49002608783377,1741600379.5450473
22,1,1,1,587,15,0.51416015625,0.8564453125,-0.20654296875,0.06103515625,-0.1220703125,0.06103515625,71.34651236161304,-81.35411288934777,-505.99447255012177,1741600379.567363
23,1,1,1,602,15,0.5068359375,0.84521484375,-0.21630859375,-0.1220703125,0.0,0.0,68.35276487122125,-84.34786037973959,-486.43666854037843,1741600379.5737836
24,1,1,1,617,15,0.509765625,0.8505859375,-0.18994140625,-0.1220703125,0.0,-0.30517578125,60.86839614524178,-91.83222910571904,-513.5167048615615,1741600379.5802174
25,1,1,1,632,15,0.5078125,0.8505859375,-0.20166015625,-0.06103515625,0.06103515625,0.18310546875,66.85589112602536,-105.30409281248207,-483.4277756158026,1741600379.5866327
26,1,1,1,647,15,0.5087890625,0.845703125,-0.2080078125,-0.06103515625,0.0,-0.244140625,78.83088108759249,-99.3165978316985,-499.97668670097,1741600379.5930314
27,1,1,1,662,15,0.5107421875,0.8505859375,-0.20458984375,-0.06103515625,0.18310546875,-0.1220703125,68.35276487122125,-88.83848161532725,-499.97668670097,1741600379.599459
28,1,1,1,677,15,0.5087890625,0.85009765625,-0.20751953125,0.0,0.06103515625,-0.244140625,74.3402598520048,-102.31034532209028,-510.5078119369856,1741600379.6058517
29,1,1,1,692,15,0.5185546875,0.85498046875,-0.19677734375,0.0,0.06103515625,-0.1220703125,54.8809011644582,-93.32910285091494,-501.48113316325794,1741600379.6346295
30,1,1,1,707,15,0.51123046875,0.849609375,-0.2080078125,0.0,0.06103515625,0.0,77.3340073423966,-100.81347157689439,-493.95890085181816,1741600379.6410744
31,1,1,1,722,15,0.50634765625,0.85009765625,-0.2041015625,0.0,0.0,0.06103515625,72.84338610680892,-82.85098663454367,-493.95890085181816,1741600379.6474833
32,1,1,1,737,15,0.50732421875,0.8544921875,-0.21337890625,0.0,0.0,0.0,69.84963861641714,-97.81972408650262,-487.9411150026664,1741600379.653865
33,1,1,1,752,15,0.5068359375,0.85546875,-0.22021484375,-0.06103515625,0.0,-0.06103515625,68.35276487122125,-96.3228503413067,-505.99447255012177,1741600379.660276
34,1,1,1,767,15,0.51025390625,0.8466796875,-0.21826171875,0.0,0.06103515625,0.0,66.85589112602536,-100.81347157689439,-504.49002608783377,1741600379.6666863
35,1,1,1,782,15,0.51220703125,0.84423828125,-0.21044921875,0.0,0.0,-0.18310546875,66.85589112602536,-100.81347157689439,-504.49002608783377,1741600379.718237
36,1,1,1,797,15,0.509765625,0.8466796875,-0.21826171875,0.06103515625,0.0,0.0,80.32775483278839,-82.85098663454367,-498.47224023868205,1741600379.729926
37,1,1,1,812,15,0.5126953125,0.85009765625,-0.205078125,-0.06103515625,0.0,0.06103515625,89.30899730396375,-88.83848161532725,-492.45445438953027,1741600379.7363605
38,1,1,1,827,15,0.50927734375,0.8525390625,-0.1923828125,0.0,0.06103515625,0.06103515625,63.86214363563357,-81.35411288934777,-502.9855796255459,1741600379.7427883
39,1,1,1,842,15,0.51025390625,0.85595703125,-0.21630859375,0.1220703125,0.06103515625,-0.18310546875,68.35276487122125,-102.31034532209028,-510.5078119369856,1741600379.7492168
40,1,1,1,857,15,0.50732421875,0.853515625,-0.20361328125,0.0,0.06103515625,-0.244140625,71.34651236161304,-102.31034532209028,-495.4633473141061,1741600379.7556038
41,1,1,1,872,15,0.50927734375,0.85009765625,-0.2099609375,0.0,0.18310546875,-0.06103515625,53.38402741926232,-91.83222910571904,-495.4633473141061,1741600379.7620225
42,1,1,1,887,15,0.51123046875,0.85498046875,-0.20263671875,-0.06103515625,0.1220703125,0.0,57.87464865484999,-102.31034532209028,-499.97668670097,1741600379.768438
43,1,1,1,902,15,0.50244140625,0.84228515625,-0.21142578125,0.0,0.06103515625,0.06103515625,71.34651236161304,-96.3228503413067,-495.4633473141061,1741600379.775173
44,1,1,1,917,15,0.51611328125,0.84814453125,-0.19970703125,0.1220703125,0.0,-0.1220703125,77.3340073423966,-90.33535536052314,-498.47224023868205,1741600379.7924354
45,1,1,1,932,15,0.5146484375,0.8466796875,-0.2109375,0.06103515625,-0.06103515625,0.0,53.38402741926232,-84.34786037973959,-505.99447255012177,1741600379.7988822
46,1,1,1,947,15,0.5205078125,0.8505859375,-0.20947265625,0.0,0.06103515625,0.0,74.3402598520048,-102.31034532209028,-495.4633473141061,1741600379.8052726
47,1,1,1,962,15,0.515625,0.85595703125,-0.220703125,0.0,0.30517578125,-0.30517578125,57.87464865484999,-99.3165978316985,-495.4633473141061,1741600379.8117025
48,1,1,1,977,15,0.51025390625,0.8544921875,-0.20654296875,0.0,0.18310546875,0.06103515625,62.365269890437666,-97.81972408650262,-498.47224023868205,1741600379.8181484
49,1,1,1,992,15,0.5146484375,0.85693359375,-0.21337890625,0.0,0.732421875,-0.244140625,62.365269890437666,-97.81972408650262,-493.95890085181816,1741600379.8245537
50,1,1,2,7,15,0.51806640625,0.859375,-0.2080078125,-0.06103515625,0.54931640625,-0.18310546875,62.365269890437666,-82.85098663454367,-507.4989190124097,1741600379.8366313
51,1,1,2,22,15,0.50244140625,0.84814453125,-0.203125,0.0,0.6103515625,-0.06103515625,62.365269890437666,-87.34160787013136,-487.9411150026664,1741600379.8488274
52,1,1,2,37,15,0.51513671875,0.84521484375,-0.2021484375,0.0,0.18310546875,-0.1220703125,69.84963861641714,-93.32910285091494,-480.4188826912267,1741600379.8552272
53,1,1,2,52,15,0.509765625,0.857421875,-0.1884765625,-0.18310546875,0.1220703125,-0.06103515625,90.80587104915965,-79.85723914415189,-483.4277756158026,1741600379.8616586
54,1,1,2,67,15,0.505859375,0.8544921875,-0.205078125,-0.1220703125,-0.06103515625,0.244140625,74.3402598520048,-99.3165978316985,-502.9855796255459,1741600379.8680723
55,1,1,2,82,15,0.5068359375,0.8525390625,-0.20068359375,0.06103515625,-0.3662109375,0.244140625,59.3715224000459,-72.37287041817243,-504.49002608783377,1741600379.8744667
56,1,1,2,97,15,0.51416015625,0.8525390625,-0.19580078125,-0.06103515625,-0.1220703125,0.3662109375,77.3340073423966,-90.33535536052314,-504.49002608783377,1741600379.8808901
57,1,1,2,112,15,0.50927734375,0.857421875,-0.20849609375,-0.06103515625,-0.6103515625,0.0,69.84963861641714,-100.81347157689439,-512.0122583992735,1741600379.8873074
58,1,1,2,127,15,0.52001953125,0.8505859375,-0.20361328125,-0.244140625,-0.48828125,0.18310546875,72.84338610680892,-100.81347157689439,-501.48113316325794,1741600379.8938344
59,1,1,2,142,15,0.517578125,0.84326171875,-0.20166015625,-0.1220703125,-0.30517578125,0.244140625,59.3715224000459,-75.36661790856421,-498.47224023868205,1741600379.9055128
60,1,1,2,157,15,0.517578125,0.8515625,-0.21044921875,-0.1220703125,-0.30517578125,-0.06103515625,66.85589112602536,-90.33535536052314,-498.47224023868205,1741600379.9119613
61,1,1,2,172,15,0.51025390625,0.8544921875,-0.20068359375,-0.1220703125,-0.18310546875,-0.18310546875,71.34651236161304,-102.31034532209028,-502.9855796255459,1741600379.9183896
62,1,1,2,187,15,0.52001953125,0.85009765625,-0.22021484375,-0.06103515625,-0.1220703125,-0.06103515625,74.3402598520048,-88.83848161532725,-489.4455614649544,1741600379.924786
63,1,1,2,202,15,0.5068359375,0.85498046875,-0.21484375,0.06103515625,0.06103515625,-0.244140625,69.84963861641714,-79.85723914415189,-504.49002608783377,1741600380.1067944
64,1,1,2,217,15,0.51904296875,0.84521484375,-0.2119140625,0.3662109375,0.30517578125,-0.244140625,66.85589112602536,-90.33535536052314,-515.0211513238494,1741600380.1132143
65,1,1,2,232,15,0.509765625,0.8544921875,-0.20703125,0.30517578125,0.1220703125,-0.30517578125,74.3402598520048,-109.79471404806975,-499.97668670097,1741600380.11965
66,1,1,2,247,15,0.5048828125,0.845703125,-0.2080078125,0.30517578125,0.244140625,-0.42724609375,83.32150232318018,-79.85723914415189,-504.49002608783377,1741600380.1339958
67,1,1,2,262,15,0.5087890625,0.84912109375,-0.2119140625,0.30517578125,0.244140625,-0.18310546875,74.3402598520048,-102.31034532209028,-495.4633473141061,1741600380.1404843
68,1,1,2,277,15,0.5078125,0.8505859375,-0.20654296875,0.06103515625,0.06103515625,-0.3662109375,54.8809011644582,-75.36661790856421,-501.48113316325794,1741600380.1469162
69,1,1,2,292,15,0.51513671875,0.85400390625,-0.21240234375,0.18310546875,0.06103515625,-0.1220703125,74.3402598520048,-96.3228503413067,-502.9855796255459,1741600380.1533225
70,1,1,2,307,15,0.51708984375,0.85205078125,-0.20556640625,0.0,0.0,0.0,86.31524981357195,-109.79471404806975,-495.4633473141061,1741600380.1597302
71,1,1,2,322,15,0.5078125,0.85888671875,-0.19873046875,0.0,-0.06103515625,0.0,62.365269890437666,-93.32910285091494,-498.47224023868205,1741600380.166105
72,1,1,2,337,15,0.515625,0.8564453125,-0.203125,0.0,0.18310546875,-0.1220703125,81.82462857798427,-88.83848161532725,-510.5078119369856,1741600380.172527
73,1,1,2,352,15,0.5166015625,0.84814453125,-0.203125,0.0,-0.18310546875,-0.06103515625,63.86214363563357,-96.3228503413067,-492.45445438953027,1741600380.1789708
74,1,1,2,367,15,0.51025390625,0.85205078125,-0.208984375,-0.18310546875,-0.1220703125,-0.244140625,72.84338610680892,-100.81347157689439,-498.47224023868205,1741600380.1853728
75,1,1,2,382,15,0.51611328125,0.84716796875,-0.193359375,-0.18310546875,-0.1220703125,0.06103515625,66.85589112602536,-93.32910285091494,-501.48113316325794,1741600380.1918004
76,1,1,2,397,15,0.50732421875,0.8583984375,-0.19580078125,-0.06103515625,0.0,0.06103515625,63.86214363563357,-88.83848161532725,-502.9855796255459,1741600380.198229
77,1,1,2,412,15,0.513671875,0.85693359375,-0.21240234375,0.0,-0.1220703125,0.0,59.3715224000459,-93.32910285091494,-501.48113316325794,1741600380.2500615
78,1,1,2,427,15,0.51611328125,0.84814453125,-0.20947265625,-0.1220703125,0.0,-0.1220703125,71.34651236161304,-84.34786037973959,-499.97668670097,1741600380.2632096
79,1,1,2,442,15,0.5146484375,0.84912109375,-0.21826171875,0.0,0.0,-0.06103515625,78.83088108759249,-91.83222910571904,-495.4633473141061,1741600380.2696695
80,1,1,2,457,15,0.51513671875,0.85302734375,-0.212890625,0.0,0.0,-0.1220703125,63.86214363563357,-99.3165978316985,-486.43666854037843,1741600380.2760916
81,1,1,2,472,15,0.51123046875,0.8544921875,-0.20947265625,0.0,0.1220703125,-0.244140625,63.86214363563357,-84.34786037973959,-489.4455614649544,1741600380.282526
82,1,1,2,487,15,0.50146484375,0.84130859375,-0.20947265625,-0.1220703125,0.244140625,0.06103515625,60.86839614524178,-96.3228503413067,-495.4633473141061,1741600380.288943
83,1,1,2,502,15,0.5068359375,0.84619140625,-0.21142578125,-0.06103515625,0.0,-0.1220703125,83.32150232318018,-108.29784030287387,-493.95890085181816,1741600380.2953377
84,1,1,2,517,15,0.50537109375,0.8603515625,-0.2099609375,0.1220703125,-0.244140625,-0.18310546875,77.3340073423966,-93.32910285091494,-493.95890085181816,1741600380.3017504
85,1,1,2,532,15,0.5078125,0.84765625,-0.20703125,0.18310546875,-0.244140625,-0.06103515625,72.84338610680892,-82.85098663454367,-490.9500079272423,1741600380.3081698
86,1,1,2,547,15,0.51611328125,0.8564453125,-0.212890625,0.0,-0.18310546875,0.0,78.83088108759249,-91.83222910571904,-481.92332915351466,1741600380.319911
87,1,1,2,562,15,0.51123046875,0.84619140625,-0.19482421875,0.0,-0.06103515625,-0.06103515625,68.35276487122125,-91.83222910571904,-505.99447255012177,1741600380.3263264
88,1,1,2,577,15,0.50927734375,0.8564453125,-0.1962890625,0.0,0.0,0.0,69.84963861641714,-82.85098663454367,-487.9411150026664,1741600380.3327363
89,1,1,2,592,15,0.5146484375,0.84912109375,-0.19970703125,-0.1220703125,0.0,0.0,59.3715224000459,-93.32910285091494,-493.95890085181816,1741600380.3391502
90,1,1,2,607,15,0.51416015625,0.85009765625,-0.2080078125,-0.06103515625,0.06103515625,-0.18310546875,69.84963861641714,-93.32910285091494,-512.0122583992735,1741600380.350845
91,1,1,2,622,15,0.50830078125,0.84375,-0.1923828125,0.0,0.42724609375,-0.06103515625,69.84963861641714,-87.34160787013136,-487.9411150026664,1741600380.357267
92,1,1,2,637,15,0.5166015625,0.84375,-0.21142578125,-0.1220703125,0.48828125,0.0,60.86839614524178,-91.83222910571904,-495.4633473141061,1741600380.36389
93,1,1,2,652,15,0.51025390625,0.853515625,-0.203125,0.0,0.1220703125,-0.1220703125,66.85589112602536,-97.81972408650262,-504.49002608783377,1741600380.3703327
94,1,1,2,667,15,0.51708984375,0.85400390625,-0.19921875,-0.06103515625,0.06103515625,-0.30517578125,68.35276487122125,-102.31034532209028,-489.4455614649544,1741600380.3767533
95,1,1,2,682,15,0.51220703125,0.84716796875,-0.2109375,0.0,-0.1220703125,-0.18310546875,63.86214363563357,-88.83848161532725,-489.4455614649544,1741600380.3831582
96,1,1,2,697,15,0.5126953125,0.8564453125,-0.19677734375,0.06103515625,0.0,-0.06103515625,78.83088108759249,-99.3165978316985,-495.4633473141061,1741600380.389581
97,1,1,2,712,15,0.5087890625,0.85400390625,-0.19287109375,0.06103515625,0.0,0.0,69.84963861641714,-97.81972408650262,-487.9411150026664,1741600380.39597
98,1,1,2,727,15,0.509765625,0.84716796875,-0.2021484375,0.0,-0.06103515625,0.06103515625,60.86839614524178,-96.3228503413067,-495.4633473141061,1741600380.4023838
99,1,1,2,742,15,0.50439453125,0.84912109375,-0.20751953125,0.0,0.0,0.0,69.84963861641714,-93.32910285091494,-490.9500079272423,1741600380.4087853
100,1,1,2,757,15,0.5048828125,0.845703125,-0.2060546875,0.0,-0.244140625,0.1220703125,69.84963861641714,-82.85098663454367,-504.49002608783377,1741600380.4209154
101,1,1,2,772,15,0.50537109375,0.86083984375,-0.21337890625,0.06103515625,0.1220703125,-0.244140625,71.34651236161304,-91.83222910571904,-486.43666854037843,1741600380.4328308
102,1,1,2,787,15,0.5078125,0.853515625,-0.20166015625,0.0,0.06103515625,0.06103515625,59.3715224000459,-90.33535536052314,-501.48113316325794,1741600380.4392505
103,1,1,2,802,15,0.50634765625,0.85546875,-0.2099609375,-0.06103515625,0.0,-0.1220703125,62.365269890437666,-100.81347157689439,-490.9500079272423,1741600380.4457107
104,1,1,2,817,15,0.5087890625,0.85009765625,-0.2119140625,0.0,0.1220703125,-0.1220703125,81.82462857798427,-96.3228503413067,-481.92332915351466,1741600380.4574423
105,1,1,2,832,15,0.50048828125,0.85009765625,-0.19970703125,-0.1220703125,0.0,-0.18310546875,74.3402598520048,-91.83222910571904,-505.99447255012177,1741600380.4638376
106,1,1,2,847,15,0.51513671875,0.84912109375,-0.20849609375,0.0,0.1220703125,0.06103515625,74.3402598520048,-114.28533528365743,-495.4633473141061,1741600380.480556
107,1,1,2,862,15,0.5078125,0.85693359375,-0.21240234375,0.06103515625,0.0,-0.06103515625,71.34651236161304,-102.31034532209028,-499.97668670097,1741600380.4870157
108,1,1,2,877,15,0.50927734375,0.85888671875,-0.201171875,0.0,0.18310546875,0.06103515625,72.84338610680892,-100.81347157689439,-501.48113316325794,1741600380.493404
109,1,1,2,892,15,0.5126953125,0.849609375,-0.20263671875,-0.06103515625,0.0,0.1220703125,71.34651236161304,-91.83222910571904,-495.4633473141061,1741600380.4998252
110,1,1,2,907,15,0.50439453125,0.85107421875,-0.21044921875,0.0,0.0,0.06103515625,59.3715224000459,-87.34160787013136,-501.48113316325794,1741600380.5062103
111,1,1,2,922,15,0.51416015625,0.8505859375,-0.19189453125,0.0,0.1220703125,-0.1220703125,62.365269890437666,-93.32910285091494,-487.9411150026664,1741600380.5126085
112,1,1,2,937,15,0.5068359375,0.85302734375,-0.1904296875,0.0,0.06103515625,-0.1220703125,57.87464865484999,-91.83222910571904,-481.92332915351466,1741600380.5344176
113,1,1,2,952,15,0.51171875,0.8525390625,-0.20751953125,0.0,0.06103515625,-0.06103515625,81.82462857798427,-78.360365398956,-499.97668670097,1741600380.5408676
114,1,1,2,967,15,0.52001953125,0.84814453125,-0.20849609375,0.0,0.18310546875,-0.18310546875,90.80587104915965,-90.33535536052314,-498.47224023868205,1741600380.5756352
115,1,1,2,982,15,0.5107421875,0.85888671875,-0.19140625,-0.06103515625,0.244140625,-0.244140625,63.86214363563357,-88.83848161532725,-502.9855796255459,1741600380.5872576
116,1,1,2,997,15,0.5087890625,0.8466796875,-0.19384765625,-0.06103515625,0.1220703125,0.1220703125,78.83088108759249,-102.31034532209028,-510.5078119369856,1741600380.593661
117,1,1,3,12,15,0.517578125,0.84033203125,-0.2060546875,0.0,-0.06103515625,-0.18310546875,60.86839614524178,-96.3228503413067,-489.4455614649544,1741600380.600093
118,1,1,3,27,15,0.5048828125,0.84814453125,-0.201171875,0.0,0.06103515625,-0.06103515625,74.3402598520048,-91.83222910571904,-492.45445438953027,1741600380.6064847
119,1,1,3,42,15,0.51171875,0.85595703125,-0.20458984375,-0.1220703125,0.0,-0.244140625,63.86214363563357,-81.35411288934777,-489.4455614649544,1741600380.6129014
120,1,1,3,57,15,0.51123046875,0.84765625,-0.20654296875,0.1220703125,0.1220703125,-0.1220703125,66.85589112602536,-97.81972408650262,-498.47224023868205,1741600380.6193192
121,1,1,3,72,15,0.50732421875,0.84765625,-0.19189453125,0.0,0.06103515625,0.0,72.84338610680892,-93.32910285091494,-487.9411150026664,1741600380.625709
122,1,1,3,87,15,0.50537109375,0.8505859375,-0.2021484375,0.0,0.18310546875,-0.06103515625,69.84963861641714,-90.33535536052314,-504.49002608783377,1741600380.6383224
123,1,1,3,102,15,0.51513671875,0.8525390625,-0.21044921875,0.1220703125,0.0,-0.1220703125,59.3715224000459,-90.33535536052314,-487.9411150026664,1741600380.6447482
124,1,1,3,117,15,0.51025390625,0.853515625,-0.19677734375,0.1220703125,-0.06103515625,-0.1220703125,54.8809011644582,-105.30409281248207,-490.9500079272423,1741600380.6653652
125,1,1,3,132,15,0.5068359375,0.8544921875,-0.216796875,0.0,0.18310546875,-0.1220703125,71.34651236161304,-114.28533528365743,-499.97668670097,1741600380.6718125
126,1,1,3,147,15,0.50390625,0.84814453125,-0.2080078125,0.1220703125,0.18310546875,-0.06103515625,62.365269890437666,-93.32910285091494,-498.47224023868205,1741600380.6782365
127,1,1,3,162,15,0.5126953125,0.859375,-0.20751953125,-0.1220703125,0.0,0.18310546875,71.34651236161304,-106.80096655767797,-502.9855796255459,1741600380.6846352
128,1,1,3,177,15,0.50927734375,0.853515625,-0.20263671875,0.0,0.1220703125,0.0,69.84963861641714,-111.29158779326563,-490.9500079272423,1741600380.707814
129,1,1,3,192,15,0.50830078125,0.8583984375,-0.21435546875,0.0,0.0,-0.06103515625,62.365269890437666,-90.33535536052314,-498.47224023868205,1741600380.7142155
130,1,1,3,207,15,0.5087890625,0.85009765625,-0.2041015625,0.0,-0.1220703125,0.06103515625,68.35276487122125,-99.3165978316985,-492.45445438953027,1741600380.7206466
131,1,1,3,222,15,0.5048828125,0.849609375,-0.2080078125,-0.1220703125,0.0,0.06103515625,72.84338610680892,-87.34160787013136,-512.0122583992735,1741600380.7270725
132,1,1,3,237,15,0.51220703125,0.84033203125,-0.19873046875,0.0,0.06103515625,-0.18310546875,66.85589112602536,-93.32910285091494,-493.95890085181816,1741600380.733472
133,1,1,3,252,15,0.51220703125,0.849609375,-0.2021484375,0.0,0.0,0.244140625,74.3402598520048,-102.31034532209028,-510.5078119369856,1741600380.7398963
134,1,1,3,267,15,0.5185546875,0.85205078125,-0.2099609375,0.06103515625,0.0,0.1220703125,77.3340073423966,-93.32910285091494,-501.48113316325794,1741600380.746298
135,1,1,3,282,15,0.51171875,0.84375,-0.2119140625,-0.1220703125,-0.06103515625,0.0,54.8809011644582,-93.32910285091494,-504.49002608783377,1741600380.7580469
136,1,1,3,297,15,0.513671875,0.8583984375,-0.19873046875,-0.06103515625,0.0,0.0,69.84963861641714,-90.33535536052314,-501.48113316325794,1741600380.7644584
137,1,1,3,312,15,0.51708984375,0.84326171875,-0.20849609375,0.0,0.06103515625,-0.1220703125,57.87464865484999,-96.3228503413067,-516.5255977861374,1741600380.7709143
138,1,1,3,327,15,0.5107421875,0.84716796875,-0.212890625,0.06103515625,0.06103515625,-0.1220703125,62.365269890437666,-90.33535536052314,-493.95890085181816,1741600380.7773335
139,1,1,3,342,15,0.5087890625,0.8525390625,-0.20654296875,0.06103515625,0.1220703125,0.0,81.82462857798427,-96.3228503413067,-513.5167048615615,1741600380.7837393
140,1,1,3,357,15,0.513671875,0.85546875,-0.20263671875,0.0,0.1220703125,0.06103515625,68.35276487122125,-84.34786037973959,-505.99447255012177,1741600380.7901578
141,1,1,3,372,15,0.51025390625,0.85302734375,-0.21826171875,-0.1220703125,0.1220703125,-0.30517578125,69.84963861641714,-115.78220902885332,-493.95890085181816,1741600380.7965734
142,1,1,3,387,15,0.5126953125,0.85302734375,-0.208984375,0.0,0.0,0.0,83.32150232318018,-90.33535536052314,-501.48113316325794,1741600380.8084207
143,1,1,3,402,15,0.51123046875,0.85595703125,-0.21337890625,0.0,0.0,-0.1220703125,81.82462857798427,-91.83222910571904,-495.4633473141061,1741600380.8153415
144,1,1,3,417,15,0.51123046875,0.857421875,-0.205078125,0.06103515625,0.244140625,0.06103515625,62.365269890437666,-105.30409281248207,-498.47224023868205,1741600380.8218086
145,1,1,3,432,15,0.5078125,0.849609375,-0.208984375,0.0,0.1220703125,0.0,71.34651236161304,-102.31034532209028,-495.4633473141061,1741600380.8282323
146,1,1,3,447,15,0.517578125,0.84912109375,-0.19091796875,0.0,0.0,0.06103515625,69.84963861641714,-93.32910285091494,-504.49002608783377,1741600380.834611
147,1,1,3,462,15,0.51904296875,0.8505859375,-0.20458984375,0.1220703125,0.18310546875,-0.18310546875,66.85589112602536,-93.32910285091494,-498.47224023868205,1741600380.8410406
148,1,1,3,477,15,0.52099609375,0.853515625,-0.21240234375,0.0,0.0,0.244140625,80.32775483278839,-90.33535536052314,-501.48113316325794,1741600380.847508
149,1,1,3,492,15,0.51416015625,0.8564453125,-0.21337890625,0.0,0.18310546875,-0.244140625,71.34651236161304,-99.3165978316985,-502.9855796255459,1741600380.8592145
150,1,1,3,507,15,0.50634765625,0.85400390625,-0.2080078125,0.06103515625,0.06103515625,-0.06103515625,59.3715224000459,-90.33535536052314,-501.48113316325794,1741600380.8813283
151,1,1,3,522,15,0.51611328125,0.85791015625,-0.2021484375,0.0,0.1220703125,-0.30517578125,60.86839614524178,-102.31034532209028,-495.4633473141061,1741600380.903422
152,1,1,3,537,15,0.51220703125,0.85107421875,-0.19384765625,0.18310546875,0.06103515625,-0.244140625,66.85589112602536,-93.32910285091494,-504.49002608783377,1741600380.9098835
153,1,1,3,552,15,0.50537109375,0.849609375,-0.20703125,0.0,0.06103515625,-0.18310546875,62.365269890437666,-82.85098663454367,-504.49002608783377,1741600380.9162796
154,1,1,3,567,15,0.5146484375,0.85400390625,-0.20947265625,0.06103515625,0.06103515625,-0.06103515625,63.86214363563357,-84.34786037973959,-502.9855796255459,1741600380.9279196
155,1,1,3,582,15,0.50830078125,0.84423828125,-0.205078125,0.0,0.06103515625,-0.1220703125,80.32775483278839,-79.85723914415189,-493.95890085181816,1741600380.93434
156,1,1,3,597,15,0.5068359375,0.85400390625,-0.205078125,0.0,0.0,-0.1220703125,48.89340618367464,-105.30409281248207,-498.47224023868205,1741600380.9407873
157,1,1,3,612,15,0.5166015625,0.8544921875,-0.20263671875,0.06103515625,0.1220703125,-0.1220703125,68.35276487122125,-84.34786037973959,-495.4633473141061,1741600380.9576735
158,1,1,3,627,15,0.50634765625,0.8505859375,-0.21533203125,0.1220703125,0.1220703125,-0.18310546875,72.84338610680892,-82.85098663454367,-483.4277756158026,1741600380.964088
159,1,1,3,642,15,0.51171875,0.85400390625,-0.20947265625,0.06103515625,0.0,-0.06103515625,77.3340073423966,-87.34160787013136,-493.95890085181816,1741600380.971062
160,1,1,3,657,15,0.5146484375,0.85009765625,-0.20751953125,0.0,0.06103515625,-0.06103515625,63.86214363563357,-99.3165978316985,-495.4633473141061,1741600380.9776506
161,1,1,3,672,15,0.515625,0.85693359375,-0.2041015625,0.0,0.0,-0.06103515625,59.3715224000459,-97.81972408650262,-501.48113316325794,1741600380.984119
162,1,1,3,687,15,0.5185546875,0.85009765625,-0.20654296875,0.0,0.0,-0.1220703125,62.365269890437666,-93.32910285091494,-493.95890085181816,1741600380.9905636
163,1,1,3,702,15,0.5146484375,0.85205078125,-0.2041015625,0.0,0.0,-0.18310546875,62.365269890437666,-82.85098663454367,-507.4989190124097,1741600380.9970334
164,1,1,3,717,15,0.51416015625,0.849609375,-0.20751953125,0.06103515625,-0.06103515625,-0.1220703125,68.35276487122125,-102.31034532209028,-495.4633473141061,1741600381.003587
165,1,1,3,732,15,0.51123046875,0.8505859375,-0.20166015625,0.0,0.0,-0.1220703125,69.84963861641714,-97.81972408650262,-493.95890085181816,1741600381.0112352
166,1,1,3,747,15,0.51220703125,0.85009765625,-0.21044921875,0.0,0.06103515625,-0.06103515625,71.34651236161304,-109.79471404806975,-499.97668670097,1741600381.018057
167,1,1,3,762,15,0.509765625,0.84716796875,-0.20751953125,0.06103515625,0.06103515625,-0.06103515625,66.85589112602536,-90.33535536052314,-490.9500079272423,1741600381.0244844
168,1,1,3,777,15,0.51416015625,0.84619140625,-0.19921875,0.06103515625,0.06103515625,-0.244140625,78.83088108759249,-99.3165978316985,-489.4455614649544,1741600381.0309093
169,1,1,3,792,15,0.5087890625,0.85546875,-0.2138671875,0.06103515625,0.1220703125,-0.30517578125,63.86214363563357,-91.83222910571904,-505.99447255012177,1741600381.0373325
170,1,1,3,807,15,0.50341796875,0.85400390625,-0.21142578125,0.0,0.06103515625,0.0,69.84963861641714,-97.81972408650262,-498.47224023868205,1741600381.0437264
171,1,1,3,822,15,0.51708984375,0.85009765625,-0.212890625,0.0,-0.06103515625,0.0,63.86214363563357,-91.83222910571904,-499.97668670097,1741600381.0611758
172,1,1,3,837,15,0.51611328125,0.8583984375,-0.21142578125,0.06103515625,-0.1220703125,-0.18310546875,72.84338610680892,-87.34160787013136,-472.896650379787,1741600381.0676625
173,1,1,3,852,15,0.51416015625,0.8544921875,-0.203125,0.1220703125,-0.18310546875,0.18310546875,62.365269890437666,-108.29784030287387,-498.47224023868205,1741600381.0740516
174,1,1,3,867,15,0.5078125,0.84765625,-0.205078125,0.0,-0.18310546875,0.06103515625,69.84963861641714,-87.34160787013136,-504.49002608783377,1741600381.0804539
175,1,1,3,882,15,0.5126953125,0.85009765625,-0.2158203125,0.0,-0.30517578125,0.06103515625,60.86839614524178,-96.3228503413067,-499.97668670097,1741600381.0868692
176,1,1,3,897,15,0.50439453125,0.85498046875,-0.2041015625,0.06103515625,-0.06103515625,0.244140625,71.34651236161304,-99.3165978316985,-492.45445438953027,1741600381.0932665
177,1,1,3,912,15,0.5087890625,0.84912109375,-0.22314453125,0.0,0.0,0.244140625,66.85589112602536,-100.81347157689439,-493.95890085181816,1741600381.1263528
178,1,1,3,927,15,0.513671875,0.8515625,-0.21044921875,0.06103515625,0.0,0.0,74.3402598520048,-96.3228503413067,-492.45445438953027,1741600381.1379561
179,1,1,3,942,15,0.5166015625,0.84423828125,-0.1943359375,0.06103515625,0.06103515625,-0.1220703125,62.365269890437666,-87.34160787013136,-493.95890085181816,1741600381.1443574
180,1,1,3,957,15,0.513671875,0.859375,-0.21044921875,0.18310546875,0.0,-0.1220703125,59.3715224000459,-82.85098663454367,-493.95890085181816,1741600381.150782
181,1,1,3,972,15,0.51123046875,0.859375,-0.20751953125,0.18310546875,0.18310546875,-0.18310546875,72.84338610680892,-79.85723914415189,-501.48113316325794,1741600381.1625278
182,1,1,3,987,15,0.50537109375,0.8486328125,-0.20361328125,0.0,0.0,0.1220703125,74.3402598520048,-96.3228503413067,-499.97668670097,1741600381.1689477
183,1,1,4,2,15,0.51416015625,0.8544921875,-0.20361328125,0.18310546875,-0.06103515625,-0.06103515625,77.3340073423966,-97.81972408650262,-490.9500079272423,1741600381.1753483
184,1,1,4,17,15,0.5087890625,0.86083984375,-0.205078125,0.1220703125,0.1220703125,0.1220703125,69.84963861641714,-82.85098663454367,-483.4277756158026,1741600381.1817596
185,1,1,4,32,15,0.509765625,0.84912109375,-0.20947265625,0.06103515625,0.06103515625,-0.18310546875,89.30899730396375,-102.31034532209028,-489.4455614649544,1741600381.1881917
186,1,1,4,47,15,0.5068359375,0.84912109375,-0.19384765625,0.0,0.06103515625,0.06103515625,69.84963861641714,-87.34160787013136,-504.49002608783377,1741600381.1945689
187,1,1,4,62,15,0.50830078125,0.85546875,-0.2158203125,0.0,0.06103515625,-0.06103515625,72.84338610680892,-108.29784030287387,-487.9411150026664,1741600381.20099
188,1,1,4,77,15,0.5166015625,0.84716796875,-0.20849609375,0.0,0.1220703125,0.06103515625,68.35276487122125,-106.80096655767797,-489.4455614649544,1741600381.207443
189,1,1,4,92,15,0.51220703125,0.85205078125,-0.1962890625,-0.06103515625,-0.06103515625,0.06103515625,68.35276487122125,-88.83848161532725,-499.97668670097,1741600381.2191007
190,1,1,4,107,15,0.51953125,0.859375,-0.2109375,0.06103515625,0.0,-0.18310546875,72.84338610680892,-108.29784030287387,-490.9500079272423,1741600381.7950432
191,1,1,4,122,15,0.50830078125,0.8515625,-0.2041015625,-0.1220703125,0.0,-0.06103515625,68.35276487122125,-99.3165978316985,-486.43666854037843,1741600381.8014915
192,1,1,4,137,15,0.5087890625,0.85009765625,-0.21728515625,0.0,0.06103515625,-0.3662109375,62.365269890437666,-93.32910285091494,-498.47224023868205,1741600381.8079078
193,1,1,4,152,15,0.51025390625,0.857421875,-0.2099609375,0.06103515625,0.0,0.06103515625,72.84338610680892,-100.81347157689439,-504.49002608783377,1741600381.8143072
194,1,1,4,167,15,0.5185546875,0.865234375,-0.2177734375,0.06103515625,0.0,0.1220703125,66.85589112602536,-100.81347157689439,-512.0122583992735,1741600381.9351556
195,1,1,4,182,15,0.509765625,0.8525390625,-0.20947265625,-0.06103515625,-0.1220703125,0.06103515625,72.84338610680892,-79.85723914415189,-483.4277756158026,1741600381.941629
196,1,1,4,197,15,0.50439453125,0.8564453125,-0.2080078125,0.1220703125,0.0,0.0,68.35276487122125,-91.83222910571904,-495.4633473141061,1741600381.9480467
197,1,1,4,212,15,0.51171875,0.85009765625,-0.212890625,-0.06103515625,-0.06103515625,0.0,63.86214363563357,-78.360365398956,-495.4633473141061,1741600381.95443
198,1,1,4,227,15,0.50537109375,0.84130859375,-0.21923828125,-0.06103515625,0.0,-0.06103515625,78.83088108759249,-81.35411288934777,-502.9855796255459,1741600381.960851
199,1,1,4,242,15,0.50830078125,0.85107421875,-0.21875,0.0,0.06103515625,-0.06103515625,62.365269890437666,-100.81347157689439,-493.95890085181816,1741600381.9672656
200,1,1,4,257,15,0.5107421875,0.84912109375,-0.2177734375,0.0,0.1220703125,0.06103515625,83.32150232318018,-97.81972408650262,-501.48113316325794,1741600381.9736502
201,1,1,4,272,15,0.52099609375,0.84814453125,-0.19970703125,-0.1220703125,0.06103515625,-0.18310546875,59.3715224000459,-97.81972408650262,-504.49002608783377,1741600381.9804606
202,1,1,4,287,15,0.5048828125,0.8544921875,-0.2041015625,0.1220703125,0.06103515625,-0.06103515625,60.86839614524178,-81.35411288934777,-489.4455614649544,1741600382.0056696
203,1,1,4,302,15,0.5107421875,0.859375,-0.2109375,0.0,-0.06103515625,0.06103515625,62.365269890437666,-97.81972408650262,-507.4989190124097,1741600382.012178
204,1,1,4,317,15,0.5146484375,0.84912109375,-0.205078125,0.0,0.0,-0.06103515625,54.8809011644582,-100.81347157689439,-507.4989190124097,1741600382.0185983
205,1,1,4,332,15,0.5107421875,0.8466796875,-0.2099609375,-0.06103515625,-0.18310546875,-0.3662109375,63.86214363563357,-99.3165978316985,-505.99447255012177,1741600382.0303123
206,1,1,4,347,15,0.49755859375,0.8486328125,-0.205078125,0.1220703125,0.1220703125,-0.1220703125,80.32775483278839,-90.33535536052314,-483.4277756158026,1741600382.0367463
207,1,1,4,362,15,0.51416015625,0.8486328125,-0.20947265625,0.0,0.1220703125,-0.244140625,74.3402598520048,-102.31034532209028,-492.45445438953027,1741600382.0432444
208,1,1,4,377,15,0.50830078125,0.8486328125,-0.2099609375,0.0,0.0,-0.30517578125,86.31524981357195,-78.360365398956,-492.45445438953027,1741600382.049764
209,1,1,4,392,15,0.51171875,0.857421875,-0.21240234375,0.0,0.06103515625,-0.244140625,71.34651236161304,-99.3165978316985,-502.9855796255459,1741600382.056148
210,1,1,4,407,15,0.50927734375,0.8486328125,-0.21875,0.06103515625,0.0,-0.06103515625,69.84963861641714,-105.30409281248207,-490.9500079272423,1741600382.0625603
211,1,1,4,422,15,0.50390625,0.84521484375,-0.1982421875,0.0,0.0,0.06103515625,62.365269890437666,-93.32910285091494,-480.4188826912267,1741600382.0689855
212,1,1,4,437,15,0.51123046875,0.85107421875,-0.1923828125,0.0,0.1220703125,-0.30517578125,57.87464865484999,-84.34786037973959,-505.99447255012177,1741600382.075357
213,1,1,4,452,15,0.5146484375,0.8515625,-0.21435546875,0.18310546875,0.0,-0.06103515625,77.3340073423966,-93.32910285091494,-498.47224023868205,1741600382.0818608
214,1,1,4,467,15,0.5126953125,0.85791015625,-0.22265625,0.0,-0.06103515625,0.0,68.35276487122125,-96.3228503413067,-505.99447255012177,1741600382.0882843
215,1,1,4,482,15,0.515625,0.84814453125,-0.2197265625,0.06103515625,0.0,-0.06103515625,57.87464865484999,-96.3228503413067,-499.97668670097,1741600382.0946789
216,1,1,4,497,15,0.5107421875,0.849609375,-0.22021484375,-0.06103515625,0.06103515625,-0.18310546875,60.86839614524178,-84.34786037973959,-495.4633473141061,1741600382.1010964
217,1,1,4,512,15,0.509765625,0.849609375,-0.20751953125,0.0,0.0,0.06103515625,77.3340073423966,-100.81347157689439,-490.9500079272423,1741600382.1126783
218,1,1,4,527,15,0.50927734375,0.85205078125,-0.2080078125,0.0,0.0,-0.18310546875,48.89340618367464,-100.81347157689439,-487.9411150026664,1741600382.9265754
219,1,1,4,542,15,0.5166015625,0.84716796875,-0.21142578125,0.0,0.1220703125,-0.1220703125,69.84963861641714,-100.81347157689439,-493.95890085181816,1741600382.9662712
220,1,1,4,557,15,0.5146484375,0.84912109375,-0.20068359375,0.0,0.0,-0.06103515625,66.85589112602536,-97.81972408650262,-487.9411150026664,1741600382.9727159
221,1,1,4,572,15,0.5078125,0.84912109375,-0.1982421875,0.06103515625,0.0,-0.06103515625,78.83088108759249,-88.83848161532725,-489.4455614649544,1741600382.9894335
222,1,1,4,587,15,0.50927734375,0.85595703125,-0.21435546875,0.0,0.0,0.06103515625,63.86214363563357,-84.34786037973959,-489.4455614649544,1741600382.9958243
223,1,1,4,602,15,0.513671875,0.84814453125,-0.20947265625,0.0,0.0,0.06103515625,62.365269890437666,-90.33535536052314,-490.9500079272423,1741600383.002242
224,1,1,4,617,15,0.5048828125,0.8603515625,-0.205078125,-0.06103515625,0.1220703125,-0.18310546875,62.365269890437666,-97.81972408650262,-498.47224023868205,1741600383.0137742
225,1,1,4,632,15,0.5126953125,0.84912109375,-0.2060546875,0.0,-0.06103515625,0.06103515625,69.84963861641714,-105.30409281248207,-483.4277756158026,1741600383.025319
226,1,1,4,647,15,0.51708984375,0.84619140625,-0.21044921875,0.06103515625,0.0,0.0,68.35276487122125,-99.3165978316985,-495.4633473141061,1741600383.0422015
227,1,1,4,662,15,0.509765625,0.8505859375,-0.21337890625,0.0,0.06103515625,-0.1220703125,74.3402598520048,-102.31034532209028,-495.4633473141061,1741600383.048661
228,1,1,4,677,15,0.51025390625,0.84814453125,-0.20361328125,-0.06103515625,0.06103515625,0.0,59.3715224000459,-90.33535536052314,-498.47224023868205,1741600383.0550563
229,1,1,4,692,15,0.5078125,0.8544921875,-0.2080078125,0.0,0.06103515625,-0.1220703125,68.35276487122125,-102.31034532209028,-492.45445438953027,1741600383.0614765
230,1,1,4,707,15,0.515625,0.85400390625,-0.208984375,0.0,0.1220703125,-0.06103515625,68.35276487122125,-91.83222910571904,-499.97668670097,1741600383.06789
231,1,1,4,722,15,0.51611328125,0.84716796875,-0.20263671875,-0.1220703125,-0.06103515625,-0.18310546875,72.84338610680892,-97.81972408650262,-493.95890085181816,1741600383.0742884
232,1,1,4,737,15,0.509765625,0.849609375,-0.20263671875,0.0,0.1220703125,-0.1220703125,77.3340073423966,-79.85723914415189,-504.49002608783377,1741600383.0807047
233,1,1,4,752,15,0.5107421875,0.85546875,-0.20751953125,0.06103515625,0.0,0.0,63.86214363563357,-91.83222910571904,-499.97668670097,1741600383.0922446
234,1,1,4,767,15,0.513671875,0.8447265625,-0.20166015625,-0.06103515625,0.0,-0.1220703125,72.84338610680892,-82.85098663454367,-480.4188826912267,1741600383.098684
235,1,1,4,782,15,0.50927734375,0.85205078125,-0.20458984375,0.0,0.1220703125,0.0,66.85589112602536,-90.33535536052314,-493.95890085181816,1741600383.1050737
236,1,1,4,797,15,0.5087890625,0.8486328125,-0.20751953125,0.0,0.0,0.06103515625,69.84963861641714,-90.33535536052314,-507.4989190124097,1741600383.111489
237,1,1,4,812,15,0.505859375,0.84765625,-0.2060546875,-0.06103515625,0.0,0.0,66.85589112602536,-90.33535536052314,-504.49002608783377,1741600383.1178994
238,1,1,4,827,15,0.51416015625,0.845703125,-0.201171875,0.18310546875,0.1220703125,-0.06103515625,57.87464865484999,-99.3165978316985,-489.4455614649544,1741600383.124289
239,1,1,4,842,15,0.50927734375,0.85205078125,-0.20703125,0.0,0.06103515625,-0.1220703125,68.35276487122125,-84.34786037973959,-502.9855796255459,1741600383.2152753
240,1,1,4,857,15,0.50634765625,0.8544921875,-0.20849609375,0.0,0.06103515625,0.0,74.3402598520048,-78.360365398956,-510.5078119369856,1741600383.2278223
241,1,1,4,872,15,0.5107421875,0.8515625,-0.203125,0.06103515625,0.06103515625,-0.18310546875,69.84963861641714,-100.81347157689439,-487.9411150026664,1741600383.2395914
242,1,1,4,887,15,0.5146484375,0.8505859375,-0.21044921875,0.0,0.0,-0.18310546875,78.83088108759249,-91.83222910571904,-481.92332915351466,1741600383.2459922
243,1,1,4,902,15,0.515625,0.85498046875,-0.19287109375,0.06103515625,0.06103515625,0.0,68.35276487122125,-81.35411288934777,-499.97668670097,1741600383.2575808
244,1,1,4,917,15,0.51123046875,0.85595703125,-0.20947265625,-0.06103515625,0.0,-0.06103515625,71.34651236161304,-84.34786037973959,-486.43666854037843,1741600383.263993
245,1,1,4,932,15,0.50341796875,0.84814453125,-0.2060546875,0.0,0.0,-0.1220703125,62.365269890437666,-105.30409281248207,-493.95890085181816,1741600383.2704208
246,1,1,4,947,15,0.515625,0.8515625,-0.21435546875,0.0,0.1220703125,-0.1220703125,80.32775483278839,-75.36661790856421,-487.9411150026664,1741600383.287068
247,1,1,4,962,15,0.5087890625,0.84814453125,-0.212890625,0.0,0.06103515625,-0.06103515625,71.34651236161304,-99.3165978316985,-489.4455614649544,1741600383.2935374
248,1,1,4,977,15,0.51416015625,0.8583984375,-0.2138671875,0.06103515625,0.06103515625,0.06103515625,60.86839614524178,-84.34786037973959,-486.43666854037843,1741600383.2999897
249,1,1,4,992,15,0.51806640625,0.8505859375,-0.2080078125,0.0,-0.244140625,-0.06103515625,63.86214363563357,-102.31034532209028,-481.92332915351466,1741600383.3063912
250,1,1,5,7,15,0.51513671875,0.85400390625,-0.1943359375,0.0,0.0,-0.244140625,72.84338610680892,-90.33535536052314,-493.95890085181816,1741600383.31282
251,1,1,5,22,15,0.50830078125,0.84521484375,-0.20263671875,0.0,-0.1220703125,0.1220703125,74.3402598520048,-109.79471404806975,-505.99447255012177,1741600383.3192458
252,1,1,5,37,15,0.51025390625,0.853515625,-0.20166015625,-0.06103515625,0.06103515625,-0.244140625,68.35276487122125,-99.3165978316985,-492.45445438953027,1741600383.3922904
253,1,1,5,52,15,0.5087890625,0.85400390625,-0.208984375,0.1220703125,-0.06103515625,-0.244140625,62.365269890437666,-111.29158779326563,-507.4989190124097,1741600383.398777
254,1,1,5,67,15,0.5078125,0.8447265625,-0.216796875,0.0,0.18310546875,0.0,71.34651236161304,-88.83848161532725,-513.5167048615615,1741600383.4051783
255,1,1,5,82,15,0.51953125,0.85205078125,-0.2119140625,-0.06103515625,0.0,-0.06103515625,71.34651236161304,-91.83222910571904,-495.4633473141061,1741600383.4115999
256,1,1,5,97,15,0.50537109375,0.85498046875,-0.2001953125,-0.1220703125,0.0,-0.06103515625,60.86839614524178,-88.83848161532725,-505.99447255012177,1741600383.4182208
257,1,1,5,112,15,0.5087890625,0.84228515625,-0.20458984375,-0.06103515625,-0.244140625,-0.06103515625,74.3402598520048,-96.3228503413067,-495.4633473141061,1741600383.4246309
258,1,1,5,127,15,0.5126953125,0.85205078125,-0.21240234375,0.0,-0.06103515625,-0.06103515625,68.35276487122125,-78.360365398956,-492.45445438953027,1741600383.4311936
259,1,1,5,142,15,0.50830078125,0.84765625,-0.2060546875,-0.1220703125,0.0,0.06103515625,63.86214363563357,-99.3165978316985,-492.45445438953027,1741600383.4481337
260,1,1,5,157,15,0.51611328125,0.8505859375,-0.20751953125,-0.06103515625,-0.1220703125,-0.18310546875,59.3715224000459,-97.81972408650262,-493.95890085181816,1741600383.4545515
261,1,1,5,172,15,0.51904296875,0.853515625,-0.19873046875,0.18310546875,0.0,0.06103515625,57.87464865484999,-84.34786037973959,-495.4633473141061,1741600383.4610035
262,1,1,5,187,15,0.50732421875,0.85205078125,-0.2109375,0.0,-0.18310546875,0.244140625,62.365269890437666,-93.32910285091494,-507.4989190124097,1741600383.4674284
263,1,1,5,202,15,0.51416015625,0.853515625,-0.21630859375,0.0,-0.18310546875,0.1220703125,77.3340073423966,-79.85723914415189,-501.48113316325794,1741600383.4738305
264,1,1,5,217,15,0.505859375,0.859375,-0.201171875,0.0,-0.1220703125,0.0,68.35276487122125,-99.3165978316985,-502.9855796255459,1741600383.4802427
265,1,1,5,232,15,0.50927734375,0.84765625,-0.20556640625,0.0,0.0,-0.1220703125,77.3340073423966,-100.81347157689439,-501.48113316325794,1741600383.486665
266,1,1,5,247,15,0.51220703125,0.84619140625,-0.216796875,0.18310546875,0.06103515625,0.1220703125,59.3715224000459,-87.34160787013136,-498.47224023868205,1741600383.4930775
267,1,1,5,262,15,0.513671875,0.85546875,-0.20458984375,0.0,0.1220703125,0.0,72.84338610680892,-90.33535536052314,-487.9411150026664,1741600383.5046227
268,1,1,5,277,15,0.5205078125,0.86083984375,-0.19580078125,0.1220703125,0.0,-0.244140625,66.85589112602536,-100.81347157689439,-507.4989190124097,1741600383.5110629
269,1,1,5,292,15,0.52001953125,0.8486328125,-0.2041015625,0.0,0.18310546875,0.06103515625,69.84963861641714,-105.30409281248207,-493.95890085181816,1741600383.5175414
270,1,1,5,307,15,0.5078125,0.849609375,-0.19921875,0.06103515625,0.18310546875,0.0,71.34651236161304,-106.80096655767797,-502.9855796255459,1741600383.523967
271,1,1,5,322,15,0.5146484375,0.85205078125,-0.21240234375,0.0,0.06103515625,-0.06103515625,74.3402598520048,-96.3228503413067,-492.45445438953027,1741600383.5304077
272,1,1,5,337,15,0.509765625,0.85302734375,-0.21533203125,0.06103515625,0.0,-0.1220703125,54.8809011644582,-87.34160787013136,-501.48113316325794,1741600383.5421214
273,1,1,5,352,15,0.50537109375,0.845703125,-0.20654296875,0.1220703125,0.0,-0.1220703125,62.365269890437666,-79.85723914415189,-498.47224023868205,1741600383.5485775
274,1,1,5,367,15,0.51123046875,0.84765625,-0.20166015625,0.06103515625,-0.1220703125,0.06103515625,68.35276487122125,-73.86974416336832,-489.4455614649544,1741600383.5549898
275,1,1,5,382,15,0.50341796875,0.8515625,-0.2119140625,0.0,0.0,-0.18310546875,63.86214363563357,-96.3228503413067,-502.9855796255459,1741600383.5614095
276,1,1,5,397,15,0.517578125,0.85595703125,-0.205078125,0.1220703125,0.18310546875,0.0,68.35276487122125,-99.3165978316985,-505.99447255012177,1741600383.5678384
277,1,1,5,412,15,0.5068359375,0.8525390625,-0.2119140625,0.06103515625,0.06103515625,0.0,74.3402598520048,-81.35411288934777,-492.45445438953027,1741600383.5742393
278,1,1,5,427,15,0.509765625,0.8466796875,-0.20556640625,0.0,-0.06103515625,0.1220703125,69.84963861641714,-93.32910285091494,-498.47224023868205,1741600383.5806959
279,1,1,5,442,15,0.515625,0.85009765625,-0.197265625,0.06103515625,0.06103515625,0.06103515625,63.86214363563357,-91.83222910571904,-481.92332915351466,1741600383.5871327
280,1,1,5,457,15,0.51123046875,0.85009765625,-0.2119140625,0.0,0.18310546875,-0.1220703125,62.365269890437666,-97.81972408650262,-504.49002608783377,1741600383.5935392
281,1,1,5,472,15,0.51171875,0.85546875,-0.2119140625,-0.06103515625,0.18310546875,0.06103515625,57.87464865484999,-88.83848161532725,-492.45445438953027,1741600383.599972
282,1,1,5,487,15,0.51611328125,0.849609375,-0.208984375,0.0,-0.06103515625,-0.1220703125,66.85589112602536,-97.81972408650262,-487.9411150026664,1741600383.606379
283,1,1,5,502,15,0.51220703125,0.8564453125,-0.22705078125,-0.1220703125,0.0,-0.1220703125,68.35276487122125,-88.83848161532725,-505.99447255012177,1741600383.612808
284,1,1,5,517,15,0.51953125,0.8427734375,-0.20556640625,0.0,0.0,-0.18310546875,71.34651236161304,-88.83848161532725,-499.97668670097,1741600383.6192195
285,1,1,5,532,15,0.5107421875,0.85205078125,-0.203125,-0.3662109375,0.06103515625,-0.244140625,57.87464865484999,-102.31034532209028,-499.97668670097,1741600383.625616
286,1,1,5,547,15,0.51953125,0.84228515625,-0.208984375,-0.18310546875,0.42724609375,-0.06103515625,71.34651236161304,-88.83848161532725,-495.4633473141061,1741600383.6320543
287,1,1,5,562,15,0.52197265625,0.83935546875,-0.21630859375,-0.244140625,0.30517578125,-0.1220703125,86.31524981357195,-88.83848161532725,-510.5078119369856,1741600383.6440594
288,1,1,5,577,15,0.50244140625,0.8515625,-0.21630859375,0.1220703125,0.30517578125,-0.06103515625,60.86839614524178,-88.83848161532725,-486.43666854037843,1741600383.6505923
289,1,1,5,592,15,0.50439453125,0.85205078125,-0.21728515625,0.1220703125,0.06103515625,-0.18310546875,74.3402598520048,-81.35411288934777,-502.9855796255459,1741600383.6570385
290,1,1,5,607,15,0.515625,0.8515625,-0.224609375,0.244140625,0.0,0.0,71.34651236161304,-96.3228503413067,-505.99447255012177,1741600383.6634376
291,1,1,5,622,15,0.513671875,0.85693359375,-0.2041015625,0.1220703125,-0.06103515625,0.06103515625,53.38402741926232,-88.83848161532725,-502.9855796255459,1741600383.6699164
292,1,1,5,637,15,0.51123046875,0.85400390625,-0.20947265625,0.06103515625,-0.1220703125,-0.1220703125,59.3715224000459,-108.29784030287387,-493.95890085181816,1741600383.6763234
293,1,1,5,652,15,0.51416015625,0.857421875,-0.205078125,0.0,-0.244140625,-0.3662109375,57.87464865484999,-91.83222910571904,-502.9855796255459,1741600383.6827812
294,1,1,5,667,15,0.515625,0.85498046875,-0.1962890625,0.0,0.0,-0.1220703125,78.83088108759249,-91.83222910571904,-492.45445438953027,1741600384.4640853
295,1,1,5,682,15,0.501953125,0.84716796875,-0.2060546875,0.0,0.0,-0.1220703125,63.86214363563357,-91.83222910571904,-492.45445438953027,1741600384.470558
296,1,1,5,697,15,0.50732421875,0.8505859375,-0.20263671875,0.0,0.244140625,-0.18310546875,83.32150232318018,-100.81347157689439,-493.95890085181816,1741600384.4770036
297,1,1,5,712,15,0.50732421875,0.853515625,-0.20458984375,0.06103515625,0.18310546875,-0.244140625,62.365269890437666,-108.29784030287387,-504.49002608783377,1741600384.4834008
298,1,1,5,727,15,0.50830078125,0.85205078125,-0.2021484375,0.1220703125,0.244140625,0.06103515625,87.81212355876785,-93.32910285091494,-498.47224023868205,1741600384.489829
299,1,1,5,742,15,0.5029296875,0.84521484375,-0.21533203125,0.06103515625,0.06103515625,-0.06103515625,62.365269890437666,-93.32910285091494,-501.48113316325794,1741600384.5014246
300,1,1,5,757,15,0.50634765625,0.85546875,-0.2060546875,0.0,-0.18310546875,-0.06103515625,66.85589112602536,-100.81347157689439,-501.48113316325794,1741600384.507902
301,1,1,5,772,15,0.517578125,0.85693359375,-0.20263671875,0.06103515625,-0.30517578125,0.0,66.85589112602536,-93.32910285091494,-483.4277756158026,1741600384.5143166
302,1,1,5,787,15,0.5146484375,0.8515625,-0.205078125,0.06103515625,-0.48828125,-0.1220703125,78.83088108759249,-91.83222910571904,-486.43666854037843,1741600384.5313585
303,1,1,5,802,15,0.5146484375,0.85205078125,-0.20556640625,0.0,-0.30517578125,-0.18310546875,63.86214363563357,-96.3228503413067,-502.9855796255459,1741600384.852635
304,1,1,5,817,15,0.51708984375,0.85498046875,-0.2138671875,-0.1220703125,-0.18310546875,0.1220703125,74.3402598520048,-99.3165978316985,-489.4455614649544,1741600384.859105
305,1,1,5,832,15,0.513671875,0.8544921875,-0.21044921875,0.06103515625,-0.06103515625,-0.06103515625,66.85589112602536,-90.33535536052314,-490.9500079272423,1741600385.0474906
306,1,1,5,847,15,0.5087890625,0.8525390625,-0.20361328125,0.1220703125,0.0,-0.1220703125,71.34651236161304,-96.3228503413067,-502.9855796255459,1741600387.3032858
307,1,1,5,862,15,0.49853515625,0.85595703125,-0.2060546875,0.0,0.0,-0.18310546875,68.35276487122125,-78.360365398956,-492.45445438953027,1741600387.3342512
308,1,1,5,877,15,0.509765625,0.84765625,-0.21044921875,0.0,0.1220703125,0.06103515625,72.84338610680892,-97.81972408650262,-504.49002608783377,1741600387.3409264
309,1,1,5,892,15,0.50390625,0.8505859375,-0.19775390625,0.1220703125,0.06103515625,-0.06103515625,81.82462857798427,-91.83222910571904,-478.9144362289387,1741600387.3474772
310,1,1,5,907,15,0.51171875,0.8359375,-0.1962890625,0.1220703125,0.244140625,0.0,71.34651236161304,-91.83222910571904,-499.97668670097,1741600387.3538775
311,1,1,5,922,15,0.51025390625,0.85498046875,-0.22265625,0.1220703125,-0.18310546875,-0.18310546875,77.3340073423966,-79.85723914415189,-501.48113316325794,1741600387.5800896
312,1,1,5,937,15,0.50830078125,0.85107421875,-0.20947265625,0.18310546875,-0.06103515625,-0.1220703125,63.86214363563357,-91.83222910571904,-505.99447255012177,1741600387.586568
313,1,1,5,952,15,0.51171875,0.8515625,-0.21240234375,-0.1220703125,0.0,-0.244140625,63.86214363563357,-81.35411288934777,-492.45445438953027,1741600387.5929828
314,1,1,5,967,15,0.51708984375,0.8544921875,-0.2041015625,0.1220703125,-0.1220703125,-0.30517578125,63.86214363563357,-96.3228503413067,-492.45445438953027,1741600387.6045618
315,1,1,5,982,15,0.5068359375,0.84912109375,-0.19091796875,-0.1220703125,0.0,0.06103515625,74.3402598520048,-96.3228503413067,-502.9855796255459,1741600387.6110103
316,1,1,5,997,15,0.50439453125,0.85009765625,-0.20166015625,0.0,-0.18310546875,0.0,60.86839614524178,-88.83848161532725,-499.97668670097,1741600387.6174352
317,1,1,6,12,15,0.5126953125,0.8486328125,-0.21630859375,0.0,0.18310546875,-0.06103515625,71.34651236161304,-91.83222910571904,-489.4455614649544,1741600387.6239073
318,1,1,6,27,15,0.50927734375,0.86083984375,-0.19287109375,0.0,0.0,-0.06103515625,68.35276487122125,-102.31034532209028,-499.97668670097,1741600387.6303551
319,1,1,6,42,15,0.50927734375,0.84716796875,-0.20166015625,-0.06103515625,0.06103515625,-0.18310546875,81.82462857798427,-81.35411288934777,-489.4455614649544,1741600387.636779
320,1,1,6,57,15,0.5107421875,0.85498046875,-0.205078125,0.0,0.0,-0.06103515625,69.84963861641714,-97.81972408650262,-490.9500079272423,1741600387.643173
321,1,1,6,72,15,0.5166015625,0.85107421875,-0.203125,0.0,0.0,-0.1220703125,66.85589112602536,-82.85098663454367,-501.48113316325794,1741600387.6496072
322,1,1,6,87,15,0.51025390625,0.8486328125,-0.20263671875,0.0,-0.1220703125,-0.06103515625,63.86214363563357,-96.3228503413067,-499.97668670097,1741600387.6560092
323,1,1,6,102,15,0.51806640625,0.8544921875,-0.20703125,-0.06103515625,-0.244140625,-0.244140625,66.85589112602536,-100.81347157689439,-490.9500079272423,1741600387.662453
324,1,1,6,117,15,0.50830078125,0.85791015625,-0.21484375,-0.1220703125,-0.1220703125,-0.06103515625,81.82462857798427,-96.3228503413067,-492.45445438953027,1741600387.668891
325,1,1,6,132,15,0.51220703125,0.8515625,-0.21044921875,0.06103515625,0.06103515625,-0.244140625,59.3715224000459,-87.34160787013136,-512.0122583992735,1741600387.6752853
326,1,1,6,147,15,0.50927734375,0.84765625,-0.21240234375,0.1220703125,0.1220703125,-0.30517578125,71.34651236161304,-91.83222910571904,-502.9855796255459,1741600387.6817048
327,1,1,6,162,15,0.50634765625,0.85400390625,-0.20703125,0.18310546875,0.06103515625,0.0,77.3340073423966,-93.32910285091494,-487.9411150026664,1741600387.6881294
328,1,1,6,177,15,0.5087890625,0.85205078125,-0.205078125,0.06103515625,0.244140625,-0.06103515625,66.85589112602536,-90.33535536052314,-493.95890085181816,1741600387.6945322
329,1,1,6,192,15,0.513671875,0.8583984375,-0.2177734375,0.0,-0.1220703125,0.06103515625,59.3715224000459,-82.85098663454367,-487.9411150026664,1741600387.7009535
330,1,1,6,207,15,0.513671875,0.84912109375,-0.2119140625,0.0,-0.1220703125,0.06103515625,74.3402598520048,-91.83222910571904,-505.99447255012177,1741600387.7075799
331,1,1,6,222,15,0.509765625,0.85693359375,-0.20654296875,0.0,-0.18310546875,0.18310546875,62.365269890437666,-105.30409281248207,-487.9411150026664,1741600387.7142918
332,1,1,6,237,15,0.5185546875,0.8466796875,-0.2138671875,0.06103515625,-0.30517578125,-0.06103515625,60.86839614524178,-102.31034532209028,-505.99447255012177,1741600387.7210965
333,1,1,6,252,15,0.51708984375,0.85205078125,-0.2060546875,0.0,-0.06103515625,-0.1220703125,74.3402598520048,-88.83848161532725,-499.97668670097,1741600387.7275474
334,1,1,6,267,15,0.51708984375,0.84423828125,-0.1943359375,0.0,0.1220703125,0.0,77.3340073423966,-100.81347157689439,-501.48113316325794,1741600387.733948
335,1,1,6,282,15,0.50537109375,0.8515625,-0.20556640625,0.06103515625,0.06103515625,-0.1220703125,72.84338610680892,-82.85098663454367,-498.47224023868205,1741600387.74038
336,1,1,6,297,15,0.513671875,0.84716796875,-0.20947265625,0.06103515625,-0.18310546875,-0.18310546875,80.32775483278839,-97.81972408650262,-498.47224023868205,1741600387.7468
337,1,1,6,312,15,0.51904296875,0.84716796875,-0.21484375,0.0,0.0,-0.244140625,68.35276487122125,-102.31034532209028,-502.9855796255459,1741600387.753191
338,1,1,6,327,15,0.5107421875,0.84033203125,-0.20751953125,0.1220703125,-0.18310546875,-0.3662109375,69.84963861641714,-87.34160787013136,-490.9500079272423,1741600387.759627
339,1,1,6,342,15,0.50732421875,0.84765625,-0.21240234375,0.06103515625,0.18310546875,-0.244140625,63.86214363563357,-88.83848161532725,-505.99447255012177,1741600387.7660177
340,1,1,6,357,15,0.5078125,0.8515625,-0.21240234375,0.244140625,0.48828125,-0.3662109375,54.8809011644582,-93.32910285091494,-483.4277756158026,1741600387.7781923
341,1,1,6,372,15,0.5009765625,0.85546875,-0.20263671875,0.3662109375,0.67138671875,-0.18310546875,71.34651236161304,-91.83222910571904,-499.97668670097,1741600387.794972
342,1,1,6,387,15,0.50048828125,0.86962890625,-0.19921875,0.18310546875,0.48828125,-0.3662109375,63.86214363563357,-96.3228503413067,-495.4633473141061,1741600388.8071647
343,1,1,6,402,15,0.51025390625,0.85302734375,-0.22021484375,0.0,0.244140625,-0.18310546875,63.86214363563357,-88.83848161532725,-495.4633473141061,1741600388.8140798
344,1,1,6,417,15,0.50634765625,0.85546875,-0.216796875,0.0,0.0,-0.1220703125,69.84963861641714,-93.32910285091494,-501.48113316325794,1741600388.8311915
345,1,1,6,432,15,0.50830078125,0.85009765625,-0.20751953125,-0.18310546875,-0.1220703125,0.18310546875,60.86839614524178,-91.83222910571904,-492.45445438953027,1741600388.8605044
346,1,1,6,447,15,0.50830078125,0.84521484375,-0.20361328125,-0.30517578125,-0.244140625,0.30517578125,72.84338610680892,-87.34160787013136,-498.47224023868205,1741600388.8670063
347,1,1,6,462,15,0.51611328125,0.861328125,-0.2001953125,-0.18310546875,-0.18310546875,0.18310546875,63.86214363563357,-96.3228503413067,-481.92332915351466,1741600388.8736973
348,1,1,6,477,15,0.51171875,0.8505859375,-0.21337890625,-0.18310546875,-0.1220703125,0.06103515625,62.365269890437666,-87.34160787013136,-501.48113316325794,1741600388.880157
349,1,1,6,492,15,0.52099609375,0.8515625,-0.205078125,-0.1220703125,0.06103515625,0.0,71.34651236161304,-88.83848161532725,-495.4633473141061,1741600388.88661
350,1,1,6,507,15,0.509765625,0.85009765625,-0.205078125,-0.1220703125,0.06103515625,0.18310546875,78.83088108759249,-84.34786037973959,-492.45445438953027,1741600388.8930416
351,1,1,6,522,15,0.51904296875,0.8544921875,-0.2041015625,-0.06103515625,0.244140625,0.18310546875,77.3340073423966,-90.33535536052314,-507.4989190124097,1741600388.9049423
352,1,1,6,537,15,0.5009765625,0.8447265625,-0.1923828125,-0.06103515625,0.244140625,0.0,59.3715224000459,-93.32910285091494,-490.9500079272423,1741600388.9114137
353,1,1,6,552,15,0.51123046875,0.84716796875,-0.21240234375,0.0,0.244140625,-0.18310546875,74.3402598520048,-81.35411288934777,-502.9855796255459,1741600388.918199
354,1,1,6,567,15,0.51123046875,0.85107421875,-0.2041015625,0.0,0.244140625,-0.06103515625,66.85589112602536,-97.81972408650262,-498.47224023868205,1741600388.9351773
355,1,1,6,582,15,0.50634765625,0.8427734375,-0.21435546875,0.244140625,0.0,-0.06103515625,68.35276487122125,-88.83848161532725,-495.4633473141061,1741600388.9416387
356,1,1,6,597,15,0.509765625,0.859375,-0.20703125,0.06103515625,-0.30517578125,-0.1220703125,66.85589112602536,-105.30409281248207,-483.4277756158026,1741600388.9481769
357,1,1,6,612,15,0.505859375,0.84716796875,-0.2138671875,0.0,-0.48828125,0.06103515625,68.35276487122125,-88.83848161532725,-510.5078119369856,1741600388.9545805
358,1,1,6,627,15,0.50537109375,0.85302734375,-0.20703125,-0.1220703125,-0.6103515625,-0.1220703125,59.3715224000459,-93.32910285091494,-490.9500079272423,1741600388.9610136
359,1,1,6,642,15,0.5146484375,0.8525390625,-0.2021484375,0.0,-0.1220703125,0.0,69.84963861641714,-75.36661790856421,-507.4989190124097,1741600388.967461
360,1,1,6,657,15,0.51171875,0.84912109375,-0.21630859375,-0.1220703125,0.0,0.244140625,68.35276487122125,-96.3228503413067,-499.97668670097,1741600390.6173985
361,1,1,6,672,15,0.51953125,0.849609375,-0.19921875,-0.244140625,0.244140625,0.18310546875,66.85589112602536,-100.81347157689439,-512.0122583992735,1741600390.6238215
362,1,1,6,687,15,0.50830078125,0.84912109375,-0.21630859375,-0.3662109375,0.48828125,0.18310546875,66.85589112602536,-79.85723914415189,-498.47224023868205,1741600390.6324
363,1,1,6,702,15,0.5087890625,0.8544921875,-0.21435546875,0.0,0.6103515625,0.1220703125,80.32775483278839,-93.32910285091494,-493.95890085181816,1741600390.6388602
364,1,1,6,717,15,0.51123046875,0.857421875,-0.2060546875,-0.06103515625,0.48828125,-0.1220703125,80.32775483278839,-97.81972408650262,-490.9500079272423,1741600390.645252
365,1,1,6,732,15,0.5048828125,0.84912109375,-0.2080078125,-0.06103515625,0.54931640625,-0.1220703125,69.84963861641714,-87.34160787013136,-493.95890085181816,1741600390.6516728
366,1,1,6,747,15,0.51123046875,0.8505859375,-0.2021484375,0.0,0.244140625,-0.244140625,59.3715224000459,-111.29158779326563,-501.48113316325794,1741600390.6580923
367,1,1,6,762,15,0.51513671875,0.85009765625,-0.20703125,0.06103515625,0.06103515625,-0.18310546875,63.86214363563357,-99.3165978316985,-489.4455614649544,1741600390.6644802
368,1,1,6,777,15,0.5087890625,0.8515625,-0.20751953125,0.244140625,0.1220703125,-0.244140625,63.86214363563357,-91.83222910571904,-499.97668670097,1741600390.670926
369,1,1,6,792,15,0.51611328125,0.84814453125,-0.21337890625,0.18310546875,-0.06103515625,-0.30517578125,63.86214363563357,-84.34786037973959,-481.92332915351466,1741600390.6773486
370,1,1,6,807,15,0.5146484375,0.84716796875,-0.2060546875,0.1220703125,-0.06103515625,-0.30517578125,54.8809011644582,-93.32910285091494,-480.4188826912267,1741600390.6837466
371,1,1,6,822,15,0.5185546875,0.849609375,-0.2177734375,0.0,-0.18310546875,-0.18310546875,63.86214363563357,-96.3228503413067,-510.5078119369856,1741600390.6904895
372,1,1,6,837,15,0.51416015625,0.85400390625,-0.203125,0.06103515625,0.06103515625,-0.3662109375,68.35276487122125,-106.80096655767797,-492.45445438953027,1741600390.6969204
373,1,1,6,852,15,0.50927734375,0.84375,-0.22119140625,0.06103515625,0.1220703125,-0.06103515625,69.84963861641714,-97.81972408650262,-493.95890085181816,1741600390.7033162
374,1,1,6,867,15,0.50927734375,0.853515625,-0.21630859375,0.18310546875,0.42724609375,-0.06103515625,60.86839614524178,-88.83848161532725,-499.97668670097,1741600390.7097178
375,1,1,6,882,15,0.50048828125,0.85107421875,-0.2109375,-0.06103515625,0.1220703125,-0.18310546875,72.84338610680892,-97.81972408650262,-483.4277756158026,1741600390.7161067
376,1,1,6,897,15,0.50830078125,0.85400390625,-0.20068359375,0.0,0.0,0.06103515625,51.887153674066425,-105.30409281248207,-512.0122583992735,1741600390.7225256
377,1,1,6,912,15,0.5068359375,0.85302734375,-0.20703125,0.0,0.0,0.0,68.35276487122125,-88.83848161532725,-505.99447255012177,1741600390.72893
378,1,1,6,927,15,0.50732421875,0.85693359375,-0.20947265625,-0.06103515625,-0.06103515625,-0.06103515625,69.84963861641714,-90.33535536052314,-490.9500079272423,1741600390.7353294
379,1,1,6,942,15,0.5107421875,0.85302734375,-0.212890625,-0.1220703125,-0.06103515625,0.1220703125,74.3402598520048,-78.360365398956,-499.97668670097,1741600390.7524655
380,1,1,6,957,15,0.51025390625,0.849609375,-0.20166015625,-0.1220703125,-0.06103515625,0.0,63.86214363563357,-88.83848161532725,-502.9855796255459,1741600390.7589118
381,1,1,6,972,15,0.5107421875,0.8486328125,-0.2236328125,0.0,-0.06103515625,-0.06103515625,66.85589112602536,-72.37287041817243,-490.9500079272423,1741600390.7652988
382,1,1,6,987,15,0.51806640625,0.8505859375,-0.203125,-0.06103515625,0.06103515625,-0.244140625,77.3340073423966,-97.81972408650262,-487.9411150026664,1741600390.7717175
383,1,1,7,2,15,0.5126953125,0.84814453125,-0.208984375,-0.06103515625,0.244140625,0.06103515625,78.83088108759249,-91.83222910571904,-492.45445438953027,1741600390.7781477
384,1,1,7,17,15,0.5068359375,0.86083984375,-0.21337890625,0.0,0.1220703125,0.0,57.87464865484999,-102.31034532209028,-502.9855796255459,1741600390.7845435
385,1,1,7,32,15,0.509765625,0.849609375,-0.2060546875,0.18310546875,0.1220703125,-0.42724609375,62.365269890437666,-105.30409281248207,-487.9411150026664,1741600390.7909753
386,1,1,7,47,15,0.51025390625,0.857421875,-0.1982421875,-0.06103515625,0.30517578125,-0.06103515625,78.83088108759249,-96.3228503413067,-495.4633473141061,1741600390.7973988
387,1,1,7,62,15,0.50390625,0.85498046875,-0.216796875,0.06103515625,0.18310546875,-0.244140625,66.85589112602536,-82.85098663454367,-493.95890085181816,1741600390.8408399
388,1,1,7,77,15,0.5166015625,0.86328125,-0.20849609375,0.06103515625,0.0,-0.06103515625,60.86839614524178,-91.83222910571904,-510.5078119369856,1741600390.9497163
389,1,1,7,92,15,0.5107421875,0.84814453125,-0.22021484375,0.0,0.0,-0.1220703125,69.84963861641714,-90.33535536052314,-501.48113316325794,1741600390.9561272
390,1,1,7,107,15,0.50732421875,0.86279296875,-0.2109375,0.0,0.0,-0.244140625,69.84963861641714,-90.33535536052314,-498.47224023868205,1741600390.9627736
391,1,1,7,122,15,0.5107421875,0.8447265625,-0.21044921875,-0.1220703125,0.1220703125,-0.06103515625,72.84338610680892,-93.32910285091494,-493.95890085181816,1741600390.9692197
392,1,1,7,137,15,0.50830078125,0.859375,-0.19921875,-0.1220703125,0.06103515625,-0.06103515625,71.34651236161304,-96.3228503413067,-513.5167048615615,1741600390.9756112
393,1,1,7,152,15,0.51123046875,0.84765625,-0.20458984375,-0.06103515625,0.1220703125,0.18310546875,74.3402598520048,-96.3228503413067,-499.97668670097,1741600390.9820268
394,1,1,7,167,15,0.513671875,0.859375,-0.2109375,-0.1220703125,0.18310546875,0.06103515625,66.85589112602536,-82.85098663454367,-490.9500079272423,1741600390.98845
395,1,1,7,182,15,0.50927734375,0.8486328125,-0.2060546875,0.0,0.0,-0.18310546875,66.85589112602536,-87.34160787013136,-493.95890085181816,1741600390.9948313
396,1,1,7,197,15,0.5087890625,0.8505859375,-0.19384765625,0.0,0.18310546875,0.244140625,69.84963861641714,-97.81972408650262,-483.4277756158026,1741600391.0012474
397,1,1,7,212,15,0.51025390625,0.8544921875,-0.20263671875,0.0,0.06103515625,-0.06103515625,71.34651236161304,-96.3228503413067,-499.97668670097,1741600391.0078342
398,1,1,7,227,15,0.509765625,0.8486328125,-0.2021484375,0.0,-0.1220703125,-0.06103515625,72.84338610680892,-108.29784030287387,-480.4188826912267,1741600391.0144403
399,1,1,7,242,15,0.517578125,0.84912109375,-0.20263671875,0.1220703125,-0.06103515625,-0.244140625,51.887153674066425,-90.33535536052314,-501.48113316325794,1741600391.0208757
400,1,1,7,257,15,0.51171875,0.85693359375,-0.197265625,0.06103515625,-0.244140625,0.0,77.3340073423966,-79.85723914415189,-480.4188826912267,1741600391.0374348
401,1,1,7,272,15,0.5107421875,0.8544921875,-0.20751953125,0.06103515625,0.0,0.06103515625,60.86839614524178,-102.31034532209028,-492.45445438953027,1741600391.1167393
402,1,1,7,287,15,0.5205078125,0.85693359375,-0.21826171875,0.0,-0.06103515625,0.0,68.35276487122125,-91.83222910571904,-499.97668670097,1741600391.1231785
403,1,1,7,302,15,0.5078125,0.8408203125,-0.20068359375,-0.06103515625,0.06103515625,0.06103515625,53.38402741926232,-106.80096655767797,-513.5167048615615,1741600391.1295965
404,1,1,7,317,15,0.50927734375,0.85595703125,-0.20654296875,0.06103515625,0.0,0.1220703125,74.3402598520048,-73.86974416336832,-495.4633473141061,1741600391.1359766
405,1,1,7,332,15,0.51513671875,0.84716796875,-0.2021484375,0.06103515625,0.244140625,-0.18310546875,68.35276487122125,-96.3228503413067,-502.9855796255459,1741600391.1423838
406,1,1,7,347,15,0.5078125,0.85009765625,-0.2099609375,0.06103515625,0.1220703125,0.06103515625,72.84338610680892,-97.81972408650262,-490.9500079272423,1741600391.148798
407,1,1,7,362,15,0.513671875,0.84619140625,-0.2041015625,0.1220703125,0.06103515625,0.06103515625,83.32150232318018,-87.34160787013136,-490.9500079272423,1741600391.1552005
408,1,1,7,377,15,0.513671875,0.8466796875,-0.19189453125,0.0,-0.06103515625,-0.1220703125,60.86839614524178,-84.34786037973959,-495.4633473141061,1741600391.1616197
409,1,1,7,392,15,0.5048828125,0.84423828125,-0.19921875,0.06103515625,-0.06103515625,-0.1220703125,80.32775483278839,-100.81347157689439,-487.9411150026664,1741600391.16869
410,1,1,7,407,15,0.51416015625,0.85302734375,-0.203125,0.1220703125,-0.18310546875,0.0,71.34651236161304,-96.3228503413067,-502.9855796255459,1741600391.1758451
411,1,1,7,422,15,0.51806640625,0.8486328125,-0.2080078125,0.0,-0.18310546875,0.06103515625,59.3715224000459,-105.30409281248207,-490.9500079272423,1741600391.1822693
412,1,1,7,437,15,0.50830078125,0.85595703125,-0.20458984375,0.18310546875,-0.18310546875,0.0,77.3340073423966,-97.81972408650262,-493.95890085181816,1741600391.1886861
413,1,1,7,452,15,0.50927734375,0.849609375,-0.20947265625,0.0,0.0,0.18310546875,68.35276487122125,-81.35411288934777,-499.97668670097,1741600391.1950748
414,1,1,7,467,15,0.51123046875,0.85107421875,-0.20849609375,0.1220703125,0.0,0.0,78.83088108759249,-91.83222910571904,-495.4633473141061,1741600391.2014856
415,1,1,7,482,15,0.50927734375,0.8525390625,-0.21435546875,0.0,0.1220703125,0.0,62.365269890437666,-97.81972408650262,-498.47224023868205,1741600391.2078905
416,1,1,7,497,15,0.50830078125,0.84423828125,-0.2021484375,0.0,0.0,0.06103515625,80.32775483278839,-100.81347157689439,-483.4277756158026,1741600391.2142694
417,1,1,7,512,15,0.5185546875,0.85205078125,-0.21728515625,0.244140625,-0.18310546875,0.0,87.81212355876785,-82.85098663454367,-493.95890085181816,1741600391.2206867
418,1,1,7,527,15,0.5078125,0.85400390625,-0.20947265625,0.1220703125,0.0,0.0,69.84963861641714,-93.32910285091494,-498.47224023868205,1741600391.3280473
419,1,1,7,542,15,0.517578125,0.8525390625,-0.2177734375,0.0,0.0,-0.06103515625,72.84338610680892,-90.33535536052314,-504.49002608783377,1741600391.3344507
420,1,1,7,557,15,0.5078125,0.85302734375,-0.208984375,0.0,-0.06103515625,-0.18310546875,63.86214363563357,-88.83848161532725,-489.4455614649544,1741600391.3687673
421,1,1,7,572,15,0.51220703125,0.84765625,-0.19775390625,-0.06103515625,-0.18310546875,0.0,78.83088108759249,-96.3228503413067,-492.45445438953027,1741600391.3751621
422,1,1,7,587,15,0.5078125,0.85400390625,-0.201171875,0.1220703125,-0.1220703125,0.1220703125,54.8809011644582,-82.85098663454367,-498.47224023868205,1741600391.381591
423,1,1,7,602,15,0.51123046875,0.85595703125,-0.208984375,0.18310546875,0.18310546875,0.0,42.90591120289107,-99.3165978316985,-502.9855796255459,1741600391.388007
424,1,1,7,617,15,0.517578125,0.8486328125,-0.19677734375,0.06103515625,0.06103515625,-0.06103515625,71.34651236161304,-102.31034532209028,-495.4633473141061,1741600391.394395
425,1,1,7,632,15,0.5068359375,0.84619140625,-0.205078125,-0.1220703125,0.0,0.0,63.86214363563357,-91.83222910571904,-505.99447255012177,1741600391.4008057
426,1,1,7,647,15,0.51953125,0.85107421875,-0.20849609375,0.0,0.0,-0.1220703125,74.3402598520048,-91.83222910571904,-492.45445438953027,1741600391.4072208
427,1,1,7,662,15,0.50244140625,0.85009765625,-0.20166015625,-0.06103515625,-0.06103515625,-0.18310546875,60.86839614524178,-99.3165978316985,-499.97668670097,1741600391.413606
428,1,1,7,677,15,0.51171875,0.85498046875,-0.21533203125,0.06103515625,0.0,0.0,72.84338610680892,-111.29158779326563,-490.9500079272423,1741600391.4200516
429,1,1,7,692,15,0.50537109375,0.85009765625,-0.2099609375,0.0,0.0,0.0,68.35276487122125,-102.31034532209028,-502.9855796255459,1741600391.4264278
430,1,1,7,707,15,0.5087890625,0.853515625,-0.21630859375,0.0,0.0,0.0,78.83088108759249,-88.83848161532725,-495.4633473141061,1741600391.432847
431,1,1,7,722,15,0.51025390625,0.85546875,-0.2021484375,0.06103515625,-0.1220703125,0.06103515625,60.86839614524178,-88.83848161532725,-489.4455614649544,1741600391.439279
432,1,1,7,737,15,0.5048828125,0.84814453125,-0.21435546875,-0.1220703125,-0.06103515625,0.1220703125,69.84963861641714,-97.81972408650262,-498.47224023868205,1741600391.4456801
433,1,1,7,752,15,0.51904296875,0.85546875,-0.19970703125,0.0,0.0,0.06103515625,63.86214363563357,-91.83222910571904,-495.4633473141061,1741600391.452087
434,1,1,7,767,15,0.5107421875,0.857421875,-0.20556640625,0.0,0.1220703125,0.06103515625,62.365269890437666,-97.81972408650262,-507.4989190124097,1741600391.4686666
435,1,1,7,782,15,0.51806640625,0.861328125,-0.20947265625,0.0,0.06103515625,0.06103515625,68.35276487122125,-84.34786037973959,-505.99447255012177,1741600391.4750676
436,1,1,7,797,15,0.51611328125,0.8486328125,-0.20849609375,0.0,0.0,-0.06103515625,66.85589112602536,-97.81972408650262,-498.47224023868205,1741600391.481498
437,1,1,7,812,15,0.50830078125,0.845703125,-0.1943359375,0.06103515625,0.06103515625,-0.1220703125,78.83088108759249,-88.83848161532725,-492.45445438953027,1741600391.4879327
438,1,1,7,827,15,0.513671875,0.841796875,-0.2099609375,0.0,-0.06103515625,0.0,71.34651236161304,-96.3228503413067,-492.45445438953027,1741600391.494335
439,1,1,7,842,15,0.51171875,0.8525390625,-0.2001953125,0.0,0.06103515625,-0.18310546875,77.3340073423966,-87.34160787013136,-498.47224023868205,1741600391.5007598
440,1,1,7,857,15,0.50390625,0.86181640625,-0.212890625,-0.06103515625,0.0,-0.06103515625,78.83088108759249,-99.3165978316985,-492.45445438953027,1741600391.5071874
441,1,1,7,872,15,0.50732421875,0.84521484375,-0.19873046875,-0.1220703125,0.0,0.1220703125,71.34651236161304,-96.3228503413067,-495.4633473141061,1741600391.5135915
442,1,1,7,887,15,0.521484375,0.85205078125,-0.197265625,0.1220703125,0.0,0.0,71.34651236161304,-78.360365398956,-492.45445438953027,1741600391.5200148
443,1,1,7,902,15,0.5068359375,0.8564453125,-0.21044921875,0.0,0.06103515625,0.0,74.3402598520048,-88.83848161532725,-499.97668670097,1741600391.526414
444,1,1,7,917,15,0.50732421875,0.849609375,-0.20556640625,0.0,0.30517578125,0.1220703125,59.3715224000459,-97.81972408650262,-498.47224023868205,1741600391.5328257
445,1,1,7,932,15,0.50537109375,0.85302734375,-0.20458984375,0.06103515625,0.3662109375,-0.06103515625,68.35276487122125,-91.83222910571904,-495.4633473141061,1741600391.5392585
446,1,1,7,947,15,0.51025390625,0.85400390625,-0.19970703125,0.0,0.48828125,-0.06103515625,57.87464865484999,-88.83848161532725,-502.9855796255459,1741600391.5456474
447,1,1,7,962,15,0.505859375,0.85302734375,-0.20654296875,0.0,0.30517578125,-0.06103515625,69.84963861641714,-93.32910285091494,-504.49002608783377,1741600391.557231
448,1,1,7,977,15,0.5078125,0.84619140625,-0.19482421875,0.1220703125,0.48828125,0.06103515625,51.887153674066425,-93.32910285091494,-493.95890085181816,1741600391.5854666
449,1,1,7,992,15,0.5126953125,0.849609375,-0.1962890625,0.0,0.244140625,-0.06103515625,80.32775483278839,-87.34160787013136,-483.4277756158026,1741600391.5919456
450,1,1,8,7,15,0.51025390625,0.85791015625,-0.2138671875,-0.1220703125,0.1220703125,0.0,68.35276487122125,-91.83222910571904,-495.4633473141061,1741600391.5985758
451,1,1,8,22,15,0.50634765625,0.853515625,-0.20068359375,0.18310546875,0.0,-0.18310546875,77.3340073423966,-90.33535536052314,-498.47224023868205,1741600391.6049845
452,1,1,8,37,15,0.51708984375,0.8466796875,-0.21337890625,-0.06103515625,-0.1220703125,0.0,63.86214363563357,-99.3165978316985,-492.45445438953027,1741600391.6171515
453,1,1,8,52,15,0.5087890625,0.85302734375,-0.2109375,-0.06103515625,-0.18310546875,0.06103515625,62.365269890437666,-69.37912292778066,-493.95890085181816,1741600391.6235821
454,1,1,8,67,15,0.51953125,0.8447265625,-0.20263671875,-0.1220703125,0.0,0.06103515625,77.3340073423966,-93.32910285091494,-504.49002608783377,1741600391.6300113
455,1,1,8,82,15,0.5126953125,0.84912109375,-0.201171875,-0.1220703125,0.0,0.1220703125,72.84338610680892,-79.85723914415189,-490.9500079272423,1741600391.6364017
456,1,1,8,97,15,0.51611328125,0.85400390625,-0.21630859375,0.0,0.0,0.06103515625,71.34651236161304,-99.3165978316985,-502.9855796255459,1741600391.6428375
457,1,1,8,112,15,0.51171875,0.85546875,-0.2080078125,-0.18310546875,0.0,0.1220703125,69.84963861641714,-97.81972408650262,-483.4277756158026,1741600391.6492774
458,1,1,8,127,15,0.5087890625,0.8486328125,-0.20458984375,-0.1220703125,0.0,0.06103515625,63.86214363563357,-88.83848161532725,-505.99447255012177,1741600391.6556811
459,1,1,8,142,15,0.51220703125,0.8388671875,-0.18505859375,0.0,0.0,0.18310546875,80.32775483278839,-90.33535536052314,-504.49002608783377,1741600391.6628168
460,1,1,8,157,15,0.5078125,0.8515625,-0.2080078125,0.0,0.1220703125,-0.1220703125,57.87464865484999,-99.3165978316985,-499.97668670097,1741600391.6694767
461,1,1,8,172,15,0.513671875,0.84033203125,-0.2021484375,-0.06103515625,-0.1220703125,0.06103515625,60.86839614524178,-81.35411288934777,-505.99447255012177,1741600391.676241
462,1,1,8,187,15,0.505859375,0.8515625,-0.2109375,0.0,0.06103515625,0.0,80.32775483278839,-93.32910285091494,-498.47224023868205,1741600391.6827
463,1,1,8,202,15,0.51904296875,0.85302734375,-0.201171875,0.06103515625,0.06103515625,-0.06103515625,69.84963861641714,-90.33535536052314,-487.9411150026664,1741600391.6891263
464,1,1,8,217,15,0.515625,0.84912109375,-0.20068359375,0.18310546875,0.1220703125,0.06103515625,77.3340073423966,-108.29784030287387,-487.9411150026664,1741600391.6955245
465,1,1,8,232,15,0.5048828125,0.85009765625,-0.205078125,0.1220703125,0.06103515625,-0.18310546875,72.84338610680892,-108.29784030287387,-501.48113316325794,1741600391.7019393
466,1,1,8,247,15,0.51123046875,0.8466796875,-0.203125,0.06103515625,0.3662109375,-0.18310546875,66.85589112602536,-93.32910285091494,-507.4989190124097,1741600393.6898146
467,1,1,8,262,15,0.51220703125,0.85302734375,-0.21240234375,0.18310546875,0.3662109375,-0.06103515625,72.84338610680892,-82.85098663454367,-493.95890085181816,1741600395.7048535
468,1,1,8,277,15,0.50537109375,0.85009765625,-0.2021484375,0.30517578125,0.244140625,-0.18310546875,78.83088108759249,-96.3228503413067,-499.97668670097,1741600395.7164524
469,1,1,8,292,15,0.50830078125,0.859375,-0.2138671875,0.1220703125,0.1220703125,-0.18310546875,78.83088108759249,-96.3228503413067,-499.97668670097,1741600395.7229142
470,1,1,8,307,15,0.51123046875,0.857421875,-0.21533203125,0.18310546875,0.0,-0.18310546875,69.84963861641714,-97.81972408650262,-504.49002608783377,1741600395.7294698
471,1,1,8,322,15,0.513671875,0.86181640625,-0.212890625,0.06103515625,0.0,0.1220703125,74.3402598520048,-88.83848161532725,-495.4633473141061,1741600395.736016
472,1,1,8,337,15,0.5107421875,0.8525390625,-0.20166015625,0.0,-0.1220703125,-0.1220703125,68.35276487122125,-84.34786037973959,-510.5078119369856,1741600395.7424524
473,1,1,8,352,15,0.5107421875,0.85205078125,-0.18359375,0.0,-0.1220703125,0.0,57.87464865484999,-96.3228503413067,-495.4633473141061,1741600395.7488708
474,1,1,8,367,15,0.51171875,0.85205078125,-0.2080078125,-0.1220703125,-0.1220703125,0.0,72.84338610680892,-87.34160787013136,-501.48113316325794,1741600395.7552648
475,1,1,8,382,15,0.5146484375,0.85302734375,-0.2080078125,0.0,0.06103515625,-0.1220703125,71.34651236161304,-84.34786037973959,-499.97668670097,1741600395.7616913
476,1,1,8,397,15,0.5107421875,0.86181640625,-0.20947265625,0.1220703125,-0.18310546875,0.244140625,62.365269890437666,-93.32910285091494,-504.49002608783377,1741600395.7681267
477,1,1,8,412,15,0.51220703125,0.85595703125,-0.21435546875,0.0,-0.06103515625,0.06103515625,66.85589112602536,-97.81972408650262,-504.49002608783377,1741600395.774519
478,1,1,8,427,15,0.51611328125,0.8544921875,-0.216796875,0.18310546875,-0.06103515625,-0.06103515625,66.85589112602536,-90.33535536052314,-501.48113316325794,1741600395.7809482
479,1,1,8,442,15,0.5126953125,0.84521484375,-0.21044921875,0.244140625,-0.06103515625,-0.1220703125,80.32775483278839,-79.85723914415189,-490.9500079272423,1741600395.792599
480,1,1,8,457,15,0.51513671875,0.8515625,-0.21044921875,0.0,-0.244140625,0.0,57.87464865484999,-91.83222910571904,-502.9855796255459,1741600395.7990758
481,1,1,8,472,15,0.515625,0.8505859375,-0.20654296875,0.0,0.06103515625,-0.06103515625,66.85589112602536,-87.34160787013136,-501.48113316325794,1741600395.805464
482,1,1,8,487,15,0.50830078125,0.84716796875,-0.21728515625,0.1220703125,-0.244140625,-0.06103515625,74.3402598520048,-84.34786037973959,-486.43666854037843,1741600395.811896
483,1,1,8,502,15,0.5146484375,0.84716796875,-0.212890625,0.1220703125,-0.18310546875,-0.42724609375,66.85589112602536,-115.78220902885332,-493.95890085181816,1741600395.8183186
484,1,1,8,517,15,0.51513671875,0.85107421875,-0.20166015625,0.1220703125,-0.1220703125,-0.30517578125,81.82462857798427,-88.83848161532725,-502.9855796255459,1741600395.8247154
485,1,1,8,532,15,0.51611328125,0.84521484375,-0.1982421875,0.1220703125,0.0,-0.1220703125,74.3402598520048,-73.86974416336832,-495.4633473141061,1741600395.8311746
486,1,1,8,547,15,0.50634765625,0.853515625,-0.220703125,0.1220703125,-0.06103515625,-0.1220703125,57.87464865484999,-91.83222910571904,-499.97668670097,1741600396.6249864
487,1,1,8,562,15,0.51708984375,0.8466796875,-0.20263671875,0.06103515625,0.0,0.0,60.86839614524178,-91.83222910571904,-505.99447255012177,1741600396.6314452
488,1,1,8,577,15,0.515625,0.8505859375,-0.20556640625,0.06103515625,0.06103515625,-0.18310546875,63.86214363563357,-81.35411288934777,-492.45445438953027,1741600396.6380093
489,1,1,8,592,15,0.50927734375,0.8466796875,-0.2001953125,0.0,0.1220703125,-0.244140625,68.35276487122125,-88.83848161532725,-499.97668670097,1741600396.644414
490,1,1,8,607,15,0.51953125,0.8525390625,-0.203125,0.0,0.0,-0.06103515625,66.85589112602536,-90.33535536052314,-507.4989190124097,1741600396.650867
491,1,1,8,622,15,0.50830078125,0.84814453125,-0.2001953125,-0.06103515625,0.1220703125,0.06103515625,78.83088108759249,-106.80096655767797,-505.99447255012177,1741600396.6580455
492,1,1,8,637,15,0.51123046875,0.849609375,-0.20751953125,-0.06103515625,0.18310546875,-0.06103515625,66.85589112602536,-93.32910285091494,-493.95890085181816,1741600396.664548
493,1,1,8,652,15,0.51708984375,0.85498046875,-0.20361328125,0.0,0.1220703125,0.18310546875,72.84338610680892,-93.32910285091494,-501.48113316325794,1741600396.6709912
494,1,1,8,667,15,0.51220703125,0.85009765625,-0.18408203125,0.0,-0.06103515625,-0.1220703125,54.8809011644582,-97.81972408650262,-501.48113316325794,1741600396.6774204
495,1,1,8,682,15,0.5068359375,0.8564453125,-0.2109375,0.0,0.0,0.06103515625,63.86214363563357,-88.83848161532725,-513.5167048615615,1741600396.6838098
496,1,1,8,697,15,0.5126953125,0.8447265625,-0.2080078125,0.1220703125,0.0,-0.1220703125,68.35276487122125,-91.83222910571904,-505.99447255012177,1741600396.6902375
497,1,1,8,712,15,0.51904296875,0.84814453125,-0.2119140625,-0.06103515625,-0.1220703125,-0.18310546875,60.86839614524178,-106.80096655767797,-486.43666854037843,1741600396.8366463
498,1,1,8,727,15,0.5107421875,0.8466796875,-0.2138671875,0.1220703125,0.0,-0.06103515625,60.86839614524178,-102.31034532209028,-499.97668670097,1741600396.8431308
499,1,1,8,742,15,0.5048828125,0.8447265625,-0.18994140625,-0.06103515625,0.18310546875,-0.1220703125,74.3402598520048,-88.83848161532725,-495.4633473141061,1741600396.8495975
500,1,1,8,757,15,0.509765625,0.84912109375,-0.20361328125,-0.06103515625,0.30517578125,-0.30517578125,69.84963861641714,-97.81972408650262,-493.95890085181816,1741600396.8559992
501,1,1,8,772,15,0.50830078125,0.85888671875,-0.201171875,-0.18310546875,0.30517578125,-0.3662109375,78.83088108759249,-81.35411288934777,-499.97668670097,1741600396.8624444
502,1,1,8,787,15,0.50244140625,0.8525390625,-0.212890625,0.0,0.3662109375,0.0,69.84963861641714,-82.85098663454367,-504.49002608783377,1741600396.8745341
503,1,1,8,802,15,0.50732421875,0.8544921875,-0.20751953125,0.06103515625,0.18310546875,-0.244140625,57.87464865484999,-78.360365398956,-492.45445438953027,1741600396.8810089
504,1,1,8,817,15,0.51171875,0.84765625,-0.20654296875,0.06103515625,0.18310546875,-0.18310546875,57.87464865484999,-88.83848161532725,-495.4633473141061,1741600396.8874485
505,1,1,8,832,15,0.5107421875,0.8544921875,-0.19921875,0.0,0.244140625,-0.30517578125,63.86214363563357,-91.83222910571904,-489.4455614649544,1741600396.893851
506,1,1,8,847,15,0.51123046875,0.8525390625,-0.20947265625,-0.244140625,0.30517578125,0.18310546875,63.86214363563357,-88.83848161532725,-513.5167048615615,1741600396.9002934
507,1,1,8,862,15,0.50927734375,0.85546875,-0.2060546875,-0.1220703125,0.0,-0.1220703125,81.82462857798427,-117.27908277404921,-495.4633473141061,1741600396.9067228
508,1,1,8,877,15,0.51513671875,0.8466796875,-0.205078125,0.0,-0.06103515625,0.06103515625,54.8809011644582,-100.81347157689439,-498.47224023868205,1741600396.913119
509,1,1,8,892,15,0.501953125,0.84716796875,-0.20166015625,0.0,0.0,0.18310546875,74.3402598520048,-99.3165978316985,-481.92332915351466,1741600396.919556
510,1,1,8,907,15,0.513671875,0.859375,-0.20556640625,0.0,-0.30517578125,0.1220703125,72.84338610680892,-97.81972408650262,-501.48113316325794,1741600396.9259653
511,1,1,8,922,15,0.50341796875,0.85400390625,-0.21337890625,-0.1220703125,-0.1220703125,0.1220703125,81.82462857798427,-91.83222910571904,-489.4455614649544,1741600396.9323936
512,1,1,8,937,15,0.51171875,0.85693359375,-0.20654296875,0.0,-0.06103515625,0.0,54.8809011644582,-93.32910285091494,-504.49002608783377,1741600396.9388323
513,1,1,8,952,15,0.51123046875,0.859375,-0.21044921875,0.0,0.18310546875,0.0,69.84963861641714,-93.32910285091494,-490.9500079272423,1741600396.945237
514,1,1,8,967,15,0.517578125,0.85107421875,-0.21533203125,-0.06103515625,0.0,0.0,71.34651236161304,-88.83848161532725,-495.4633473141061,1741600396.9516647
515,1,1,8,982,15,0.51953125,0.8486328125,-0.208984375,-0.06103515625,0.06103515625,0.0,62.365269890437666,-90.33535536052314,-507.4989190124097,1741600396.9580982
516,1,1,8,997,15,0.52099609375,0.85205078125,-0.2099609375,0.0,0.06103515625,0.0,60.86839614524178,-91.83222910571904,-499.97668670097,1741600396.9645033
517,1,1,9,12,15,0.5107421875,0.84521484375,-0.232421875,0.0,0.1220703125,-0.1220703125,71.34651236161304,-84.34786037973959,-486.43666854037843,1741600396.970936
518,1,1,9,27,15,0.513671875,0.853515625,-0.21337890625,-0.244140625,0.30517578125,-0.244140625,60.86839614524178,-102.31034532209028,-495.4633473141061,1741600397.0068471
519,1,1,9,42,15,0.5048828125,0.84423828125,-0.21337890625,0.0,0.30517578125,-0.244140625,59.3715224000459,-93.32910285091494,-512.0122583992735,1741600397.013279
520,1,1,9,57,15,0.50439453125,0.84375,-0.208984375,0.0,0.30517578125,-0.244140625,51.887153674066425,-93.32910285091494,-493.95890085181816,1741600397.0197043
521,1,1,9,72,15,0.50634765625,0.85693359375,-0.20263671875,0.1220703125,0.244140625,-0.3662109375,69.84963861641714,-100.81347157689439,-507.4989190124097,1741600397.026097
522,1,1,9,87,15,0.5126953125,0.8505859375,-0.208984375,-0.1220703125,0.18310546875,-0.06103515625,86.31524981357195,-84.34786037973959,-502.9855796255459,1741600397.0325127
523,1,1,9,102,15,0.513671875,0.85302734375,-0.20068359375,0.0,0.0,-0.06103515625,62.365269890437666,-105.30409281248207,-512.0122583992735,1741600397.080194
524,1,1,9,117,15,0.51123046875,0.85546875,-0.20751953125,-0.06103515625,0.18310546875,0.0,81.82462857798427,-88.83848161532725,-492.45445438953027,1741600397.086633
525,1,1,9,132,15,0.50390625,0.853515625,-0.19775390625,0.06103515625,-0.06103515625,-0.06103515625,53.38402741926232,-84.34786037973959,-495.4633473141061,1741600397.0930357
526,1,1,9,147,15,0.51123046875,0.85205078125,-0.2060546875,0.0,0.244140625,0.1220703125,71.34651236161304,-84.34786037973959,-502.9855796255459,1741600397.09945
527,1,1,9,162,15,0.509765625,0.85205078125,-0.2080078125,-0.06103515625,0.30517578125,0.0,86.31524981357195,-96.3228503413067,-495.4633473141061,1741600397.1058397
528,1,1,9,177,15,0.50830078125,0.85498046875,-0.18896484375,0.0,0.06103515625,-0.1220703125,68.35276487122125,-73.86974416336832,-510.5078119369856,1741600397.152427
529,1,1,9,192,15,0.51025390625,0.85595703125,-0.20556640625,-0.06103515625,0.06103515625,0.06103515625,68.35276487122125,-81.35411288934777,-502.9855796255459,1741600397.1588857
530,1,1,9,207,15,0.5146484375,0.84619140625,-0.21240234375,0.0,0.06103515625,0.1220703125,62.365269890437666,-93.32910285091494,-501.48113316325794,1741600397.1652672
531,1,1,9,222,15,0.513671875,0.8447265625,-0.21484375,-0.06103515625,0.06103515625,0.0,66.85589112602536,-97.81972408650262,-487.9411150026664,1741600397.1716833
532,1,1,9,237,15,0.50244140625,0.85205078125,-0.20947265625,0.06103515625,-0.06103515625,-0.06103515625,86.31524981357195,-99.3165978316985,-495.4633473141061,1741600397.1781023
533,1,1,9,252,15,0.50830078125,0.8544921875,-0.208984375,0.0,0.0,-0.06103515625,62.365269890437666,-82.85098663454367,-501.48113316325794,1741600397.1844833
534,1,1,9,267,15,0.50439453125,0.84912109375,-0.203125,-0.06103515625,-0.1220703125,0.06103515625,68.35276487122125,-84.34786037973959,-499.97668670097,1741600397.1910505
535,1,1,9,282,15,0.51416015625,0.8505859375,-0.2177734375,-0.1220703125,-0.1220703125,0.0,68.35276487122125,-99.3165978316985,-495.4633473141061,1741600397.2889838
536,1,1,9,297,15,0.5126953125,0.8447265625,-0.1962890625,-0.06103515625,-0.3662109375,-0.1220703125,72.84338610680892,-90.33535536052314,-493.95890085181816,1741600397.2954035
537,1,1,9,312,15,0.50634765625,0.85546875,-0.19580078125,0.0,-0.06103515625,0.244140625,71.34651236161304,-96.3228503413067,-489.4455614649544,1741600397.3192708
538,1,1,9,327,15,0.51220703125,0.85205078125,-0.20556640625,0.18310546875,-0.1220703125,0.06103515625,62.365269890437666,-100.81347157689439,-483.4277756158026,1741600397.3511515
539,1,1,9,342,15,0.5185546875,0.85595703125,-0.20849609375,0.0,-0.18310546875,-0.06103515625,78.83088108759249,-88.83848161532725,-495.4633473141061,1741600397.357613
540,1,1,9,357,15,0.50927734375,0.84521484375,-0.20947265625,0.0,0.0,-0.18310546875,71.34651236161304,-91.83222910571904,-495.4633473141061,1741600397.3641796
541,1,1,9,372,15,0.515625,0.85693359375,-0.19921875,0.06103515625,0.0,-0.06103515625,80.32775483278839,-97.81972408650262,-504.49002608783377,1741600397.3707502
542,1,1,9,387,15,0.51708984375,0.853515625,-0.2041015625,0.06103515625,0.18310546875,-0.1220703125,63.86214363563357,-88.83848161532725,-513.5167048615615,1741600397.3771675
543,1,1,9,402,15,0.51220703125,0.849609375,-0.22021484375,0.18310546875,0.18310546875,0.0,77.3340073423966,-100.81347157689439,-498.47224023868205,1741600397.3835542
544,1,1,9,417,15,0.50927734375,0.8486328125,-0.216796875,0.18310546875,0.06103515625,0.0,77.3340073423966,-100.81347157689439,-493.95890085181816,1741600397.389951
545,1,1,9,432,15,0.50634765625,0.8505859375,-0.2021484375,0.244140625,0.1220703125,-0.30517578125,66.85589112602536,-82.85098663454367,-507.4989190124097,1741600397.3963342
546,1,1,9,447,15,0.5126953125,0.8525390625,-0.20703125,0.18310546875,0.06103515625,-0.1220703125,81.82462857798427,-88.83848161532725,-486.43666854037843,1741600397.413242
547,1,1,9,462,15,0.5126953125,0.85302734375,-0.203125,0.0,0.0,-0.3662109375,63.86214363563357,-96.3228503413067,-513.5167048615615,1741600397.4298809
548,1,1,9,477,15,0.5087890625,0.85791015625,-0.21240234375,0.0,0.0,-0.18310546875,57.87464865484999,-84.34786037973959,-478.9144362289387,1741600397.436278
549,1,1,9,492,15,0.50537109375,0.85595703125,-0.19677734375,0.06103515625,0.0,0.0,80.32775483278839,-75.36661790856421,-498.47224023868205,1741600397.4427123
550,1,1,9,507,15,0.51513671875,0.8525390625,-0.2080078125,0.06103515625,-0.30517578125,0.06103515625,71.34651236161304,-109.79471404806975,-495.4633473141061,1741600397.4491384
551,1,1,9,522,15,0.505859375,0.85791015625,-0.21435546875,0.06103515625,-0.1220703125,-0.18310546875,60.86839614524178,-91.83222910571904,-505.99447255012177,1741600397.4555366
552,1,1,9,537,15,0.5048828125,0.8505859375,-0.205078125,0.244140625,-0.1220703125,-0.06103515625,63.86214363563357,-91.83222910571904,-505.99447255012177,1741600397.4674907
553,1,1,9,552,15,0.50830078125,0.8603515625,-0.20458984375,0.0,-0.18310546875,-0.1220703125,80.32775483278839,-97.81972408650262,-507.4989190124097,1741600397.4742105
554,1,1,9,567,15,0.51708984375,0.8447265625,-0.208984375,0.06103515625,-0.18310546875,0.0,60.86839614524178,-84.34786037973959,-510.5078119369856,1741600397.4806604
555,1,1,9,582,15,0.50830078125,0.84326171875,-0.20361328125,0.1220703125,-0.06103515625,0.0,66.85589112602536,-105.30409281248207,-490.9500079272423,1741600397.4870975
556,1,1,9,597,15,0.5205078125,0.84619140625,-0.20068359375,0.0,-0.06103515625,-0.06103515625,77.3340073423966,-97.81972408650262,-507.4989190124097,1741600397.4934974
557,1,1,9,612,15,0.5185546875,0.8486328125,-0.20654296875,-0.06103515625,-0.1220703125,-0.1220703125,59.3715224000459,-82.85098663454367,-507.4989190124097,1741600397.499977
558,1,1,9,627,15,0.51220703125,0.85205078125,-0.228515625,-0.1220703125,-0.18310546875,-0.06103515625,72.84338610680892,-93.32910285091494,-501.48113316325794,1741600397.5063775
559,1,1,9,642,15,0.5107421875,0.8515625,-0.21826171875,0.0,0.244140625,-0.18310546875,69.84963861641714,-75.36661790856421,-498.47224023868205,1741600397.5590096
560,1,1,9,657,15,0.5126953125,0.84033203125,-0.21630859375,0.0,0.18310546875,-0.3662109375,62.365269890437666,-90.33535536052314,-507.4989190124097,1741600397.5654292
561,1,1,9,672,15,0.51220703125,0.85498046875,-0.21044921875,0.0,0.3662109375,-0.3662109375,63.86214363563357,-84.34786037973959,-516.5255977861374,1741600397.5720007
562,1,1,9,687,15,0.51220703125,0.8544921875,-0.21533203125,0.244140625,0.6103515625,-0.3662109375,66.85589112602536,-97.81972408650262,-493.95890085181816,1741600397.5785835
563,1,1,9,702,15,0.5087890625,0.8544921875,-0.20849609375,0.0,0.54931640625,-0.3662109375,62.365269890437666,-90.33535536052314,-504.49002608783377,1741600397.5849938
564,1,1,9,717,15,0.501953125,0.85400390625,-0.20947265625,0.18310546875,0.3662109375,-0.42724609375,69.84963861641714,-79.85723914415189,-498.47224023868205,1741600397.5914173
565,1,1,9,732,15,0.5068359375,0.8447265625,-0.208984375,0.18310546875,0.30517578125,-0.48828125,71.34651236161304,-102.31034532209028,-499.97668670097,1741600397.5978372
566,1,1,9,747,15,0.501953125,0.853515625,-0.1962890625,0.244140625,0.54931640625,-0.3662109375,83.32150232318018,-93.32910285091494,-483.4277756158026,1741600397.6042492
567,1,1,9,762,15,0.509765625,0.84765625,-0.19873046875,0.18310546875,0.48828125,-0.48828125,77.3340073423966,-93.32910285091494,-490.9500079272423,1741600397.616006
568,1,1,9,777,15,0.50732421875,0.86279296875,-0.20166015625,0.30517578125,1.15966796875,-0.48828125,68.35276487122125,-91.83222910571904,-492.45445438953027,1741600397.6225061
569,1,1,9,792,15,0.5126953125,0.859375,-0.21484375,-0.244140625,0.732421875,-0.79345703125,59.3715224000459,-100.81347157689439,-504.49002608783377,1741600397.6341646
570,1,1,9,807,15,0.51123046875,0.8505859375,-0.2158203125,-0.1220703125,0.9765625,-0.6103515625,69.84963861641714,-100.81347157689439,-504.49002608783377,1741600397.6406164
571,1,1,9,822,15,0.50634765625,0.85009765625,-0.2119140625,-0.244140625,1.3427734375,-0.8544921875,68.35276487122125,-96.3228503413067,-502.9855796255459,1741600397.6471303
572,1,1,9,837,15,0.50927734375,0.85888671875,-0.20751953125,0.0,1.220703125,-0.48828125,72.84338610680892,-97.81972408650262,-498.47224023868205,1741600397.6798575
573,1,1,9,852,15,0.50244140625,0.8427734375,-0.201171875,-0.30517578125,2.25830078125,-0.67138671875,71.34651236161304,-99.3165978316985,-495.4633473141061,1741600397.8349879
574,1,1,9,867,15,0.51171875,0.85498046875,-0.212890625,-0.42724609375,2.3193359375,-0.3662109375,87.81212355876785,-90.33535536052314,-498.47224023868205,1741600397.905269
575,1,1,9,882,15,0.5078125,0.8544921875,-0.212890625,-0.244140625,1.953125,-0.30517578125,51.887153674066425,-93.32910285091494,-501.48113316325794,1741600397.9290397
576,1,1,9,897,15,0.5107421875,0.849609375,-0.21826171875,-0.18310546875,1.77001953125,-0.3662109375,71.34651236161304,-91.83222910571904,-510.5078119369856,1741600397.9355032
577,1,1,9,912,15,0.509765625,0.84814453125,-0.2109375,-0.244140625,1.64794921875,-0.42724609375,86.31524981357195,-106.80096655767797,-495.4633473141061,1741600397.9456708
578,1,1,9,927,15,0.501953125,0.85107421875,-0.2119140625,0.0,1.52587890625,-0.1220703125,66.85589112602536,-105.30409281248207,-501.48113316325794,1741600397.9521468
579,1,1,9,942,15,0.515625,0.84375,-0.20458984375,0.06103515625,1.15966796875,-0.244140625,59.3715224000459,-108.29784030287387,-490.9500079272423,1741600397.9588988
580,1,1,9,957,15,0.50927734375,0.8486328125,-0.19677734375,0.06103515625,1.0986328125,-0.1220703125,62.365269890437666,-90.33535536052314,-493.95890085181816,1741600397.965317
581,1,1,9,972,15,0.509765625,0.85009765625,-0.201171875,0.54931640625,1.03759765625,0.18310546875,78.83088108759249,-88.83848161532725,-489.4455614649544,1741600397.9717906
582,1,1,9,987,15,0.5107421875,0.85595703125,-0.18359375,-0.06103515625,0.06103515625,0.06103515625,71.34651236161304,-78.360365398956,-510.5078119369856,1741600397.9782426
583,1,1,10,2,15,0.50830078125,0.85693359375,-0.1943359375,0.06103515625,0.3662109375,0.06103515625,54.8809011644582,-111.29158779326563,-498.47224023868205,1741600397.9846377
584,1,1,10,17,15,0.517578125,0.8642578125,-0.189453125,-0.06103515625,0.8544921875,0.18310546875,77.3340073423966,-93.32910285091494,-498.47224023868205,1741600397.9962363
585,1,1,10,32,15,0.50732421875,0.8583984375,-0.203125,0.06103515625,1.52587890625,0.18310546875,69.84963861641714,-93.32910285091494,-493.95890085181816,1741600398.0026972
586,1,1,10,47,15,0.50439453125,0.84765625,-0.18408203125,0.1220703125,0.30517578125,0.06103515625,77.3340073423966,-87.34160787013136,-490.9500079272423,1741600398.0091264
587,1,1,10,62,15,0.5068359375,0.8466796875,-0.2021484375,-0.1220703125,-0.1220703125,0.54931640625,59.3715224000459,-97.81972408650262,-504.49002608783377,1741600398.0155394
588,1,1,10,77,15,0.5078125,0.85009765625,-0.18408203125,-0.18310546875,0.0,0.6103515625,60.86839614524178,-91.83222910571904,-505.99447255012177,1741600398.0747583
589,1,1,10,92,15,0.50439453125,0.84912109375,-0.212890625,0.0,-0.3662109375,0.732421875,78.83088108759249,-109.79471404806975,-486.43666854037843,1741600398.081252
590,1,1,10,107,15,0.5078125,0.85888671875,-0.181640625,0.0,-0.91552734375,0.79345703125,74.3402598520048,-91.83222910571904,-495.4633473141061,1741600398.0877285
591,1,1,10,122,15,0.51025390625,0.85693359375,-0.197265625,0.1220703125,-1.220703125,1.0986328125,77.3340073423966,-79.85723914415189,-504.49002608783377,1741600398.0941312
592,1,1,10,137,15,0.5146484375,0.84326171875,-0.20068359375,0.1220703125,-1.28173828125,0.6103515625,80.32775483278839,-90.33535536052314,-493.95890085181816,1741600398.1163425
593,1,1,10,152,15,0.5078125,0.8662109375,-0.20361328125,0.18310546875,-1.28173828125,0.67138671875,80.32775483278839,-90.33535536052314,-501.48113316325794,1741600398.1228113
594,1,1,10,167,15,0.51513671875,0.861328125,-0.20849609375,0.06103515625,-1.0986328125,0.79345703125,77.3340073423966,-97.81972408650262,-490.9500079272423,1741600398.1292286
595,1,1,10,182,15,0.51708984375,0.8544921875,-0.18896484375,-0.1220703125,-0.91552734375,0.8544921875,59.3715224000459,-82.85098663454367,-483.4277756158026,1741600398.1356456
596,1,1,10,197,15,0.50537109375,0.85302734375,-0.1923828125,-0.3662109375,-0.9765625,1.03759765625,71.34651236161304,-91.83222910571904,-502.9855796255459,1741600398.147411
597,1,1,10,212,15,0.51220703125,0.85302734375,-0.21533203125,-0.8544921875,-0.6103515625,0.9765625,69.84963861641714,-87.34160787013136,-504.49002608783377,1741600398.1538248
598,1,1,10,227,15,0.51123046875,0.8408203125,-0.2158203125,-0.6103515625,-0.9765625,1.15966796875,69.84963861641714,-105.30409281248207,-490.9500079272423,1741600398.1604197
599,1,1,10,242,15,0.5146484375,0.8525390625,-0.19287109375,-0.732421875,-0.67138671875,0.9765625,63.86214363563357,-88.83848161532725,-492.45445438953027,1741600398.167099
600,1,1,10,257,15,0.5107421875,0.8525390625,-0.203125,-0.732421875,0.0,1.28173828125,77.3340073423966,-105.30409281248207,-498.47224023868205,1741600398.1792283
601,1,1,10,272,15,0.51220703125,0.85498046875,-0.21533203125,-0.67138671875,0.30517578125,0.9765625,86.31524981357195,-84.34786037973959,-492.45445438953027,1741600398.185636
602,1,1,10,287,15,0.513671875,0.83740234375,-0.21875,-0.67138671875,0.18310546875,0.91552734375,50.390279928870534,-96.3228503413067,-502.9855796255459,1741600398.1920726
603,1,1,10,302,15,0.509765625,0.85205078125,-0.2099609375,-0.3662109375,0.1220703125,0.8544921875,78.83088108759249,-84.34786037973959,-499.97668670097,1741600398.1985261
604,1,1,10,317,15,0.52197265625,0.853515625,-0.2158203125,-0.8544921875,0.48828125,0.79345703125,68.35276487122125,-84.34786037973959,-499.97668670097,1741600398.2049253
605,1,1,10,332,15,0.5087890625,0.85302734375,-0.21142578125,-0.54931640625,0.6103515625,1.0986328125,69.84963861641714,-100.81347157689439,-501.48113316325794,1741600398.2113616
606,1,1,10,347,15,0.51611328125,0.84716796875,-0.20361328125,-0.9765625,0.91552734375,1.0986328125,63.86214363563357,-84.34786037973959,-495.4633473141061,1741600398.2179627
607,1,1,10,362,15,0.5224609375,0.8427734375,-0.21435546875,-0.91552734375,1.15966796875,1.15966796875,74.3402598520048,-99.3165978316985,-502.9855796255459,1741600398.2245266
608,1,1,10,377,15,0.50927734375,0.84716796875,-0.20458984375,-1.03759765625,1.0986328125,1.15966796875,71.34651236161304,-84.34786037973959,-499.97668670097,1741600398.2310956
609,1,1,10,392,15,0.5205078125,0.85400390625,-0.197265625,-1.15966796875,0.79345703125,1.15966796875,62.365269890437666,-97.81972408650262,-493.95890085181816,1741600398.2428477
610,1,1,10,407,15,0.5107421875,0.8564453125,-0.20703125,-0.732421875,0.67138671875,0.79345703125,62.365269890437666,-105.30409281248207,-498.47224023868205,1741600398.2493305
611,1,1,10,422,15,0.52001953125,0.84228515625,-0.201171875,-0.79345703125,0.8544921875,0.732421875,69.84963861641714,-90.33535536052314,-512.0122583992735,1741600398.2557402
612,1,1,10,437,15,0.5107421875,0.8505859375,-0.193359375,-0.48828125,1.03759765625,0.67138671875,54.8809011644582,-97.81972408650262,-498.47224023868205,1741600398.2621706
613,1,1,10,452,15,0.5126953125,0.85009765625,-0.20751953125,-0.1220703125,0.9765625,0.67138671875,60.86839614524178,-96.3228503413067,-499.97668670097,1741600398.26859
614,1,1,10,467,15,0.5107421875,0.84130859375,-0.19287109375,-0.30517578125,0.732421875,0.67138671875,69.84963861641714,-105.30409281248207,-490.9500079272423,1741600398.2749875
615,1,1,10,482,15,0.5166015625,0.8544921875,-0.2119140625,0.3662109375,0.30517578125,0.6103515625,68.35276487122125,-91.83222910571904,-502.9855796255459,1741600398.2816622
616,1,1,10,497,15,0.52099609375,0.845703125,-0.20166015625,0.67138671875,0.30517578125,0.6103515625,63.86214363563357,-84.34786037973959,-510.5078119369856,1741600398.2881293
617,1,1,10,512,15,0.52197265625,0.84765625,-0.2001953125,0.30517578125,0.0,0.30517578125,57.87464865484999,-99.3165978316985,-499.97668670097,1741600398.2945268
618,1,1,10,527,15,0.5205078125,0.85693359375,-0.2197265625,0.732421875,0.0,0.42724609375,78.83088108759249,-81.35411288934777,-492.45445438953027,1741600398.3060696
619,1,1,10,542,15,0.51025390625,0.84130859375,-0.185546875,0.54931640625,-0.18310546875,0.48828125,57.87464865484999,-109.79471404806975,-489.4455614649544,1741600398.4176831
620,1,1,10,557,15,0.52099609375,0.85546875,-0.2021484375,0.42724609375,0.18310546875,0.244140625,74.3402598520048,-88.83848161532725,-505.99447255012177,1741600398.4241037
621,1,1,10,572,15,0.51123046875,0.85302734375,-0.2060546875,0.67138671875,0.06103515625,0.3662109375,66.85589112602536,-93.32910285091494,-501.48113316325794,1741600398.440826
622,1,1,10,587,15,0.5107421875,0.8583984375,-0.20068359375,0.3662109375,0.30517578125,0.42724609375,63.86214363563357,-91.83222910571904,-486.43666854037843,1741600398.4472873
623,1,1,10,602,15,0.51171875,0.85009765625,-0.20458984375,0.18310546875,0.42724609375,0.30517578125,68.35276487122125,-96.3228503413067,-499.97668670097,1741600398.4538803
624,1,1,10,617,15,0.51025390625,0.8544921875,-0.2119140625,0.06103515625,0.54931640625,0.3662109375,60.86839614524178,-91.83222910571904,-505.99447255012177,1741600398.471938
625,1,1,10,632,15,0.5185546875,0.84521484375,-0.201171875,0.06103515625,0.48828125,0.3662109375,62.365269890437666,-97.81972408650262,-493.95890085181816,1741600398.47838
626,1,1,10,647,15,0.52490234375,0.8564453125,-0.18603515625,0.0,0.30517578125,0.42724609375,62.365269890437666,-79.85723914415189,-504.49002608783377,1741600398.4847903
627,1,1,10,662,15,0.52734375,0.849609375,-0.2099609375,0.0,0.18310546875,0.54931640625,48.89340618367464,-90.33535536052314,-498.47224023868205,1741600398.496352
628,1,1,10,677,15,0.5205078125,0.8544921875,-0.20947265625,-0.244140625,0.42724609375,0.6103515625,63.86214363563357,-91.83222910571904,-502.9855796255459,1741600398.5027983
629,1,1,10,692,15,0.52099609375,0.8525390625,-0.19921875,-0.6103515625,0.48828125,0.42724609375,66.85589112602536,-82.85098663454367,-501.48113316325794,1741600398.5092447
630,1,1,10,707,15,0.517578125,0.84765625,-0.18505859375,-0.67138671875,0.54931640625,0.30517578125,66.85589112602536,-97.81972408650262,-498.47224023868205,1741600398.5156534
631,1,1,10,722,15,0.51953125,0.8515625,-0.20556640625,-0.79345703125,0.3662109375,0.06103515625,71.34651236161304,-88.83848161532725,-499.97668670097,1741600398.5221672
632,1,1,10,737,15,0.51806640625,0.84228515625,-0.20556640625,-0.48828125,0.67138671875,0.0,77.3340073423966,-90.33535536052314,-493.95890085181816,1741600398.528615
633,1,1,10,752,15,0.5048828125,0.84228515625,-0.20947265625,-0.6103515625,0.79345703125,0.0,69.84963861641714,-97.81972408650262,-504.49002608783377,1741600398.5350165
634,1,1,10,767,15,0.515625,0.83642578125,-0.1923828125,-0.48828125,1.15966796875,0.0,68.35276487122125,-88.83848161532725,-502.9855796255459,1741600398.541463
635,1,1,10,782,15,0.51708984375,0.84375,-0.2060546875,0.0,1.15966796875,-0.18310546875,63.86214363563357,-88.83848161532725,-499.97668670097,1741600398.5478973
636,1,1,10,797,15,0.5224609375,0.84375,-0.20068359375,-0.42724609375,1.64794921875,-0.244140625,66.85589112602536,-82.85098663454367,-498.47224023868205,1741600398.554327
637,1,1,10,812,15,0.52490234375,0.84326171875,-0.2080078125,-0.06103515625,1.5869140625,-0.42724609375,63.86214363563357,-99.3165978316985,-495.4633473141061,1741600398.566069
638,1,1,10,827,15,0.5322265625,0.8447265625,-0.2021484375,-0.1220703125,1.708984375,-0.48828125,69.84963861641714,-97.81972408650262,-504.49002608783377,1741600398.5726054
639,1,1,10,842,15,0.5263671875,0.845703125,-0.21435546875,-0.18310546875,1.8310546875,-0.732421875,54.8809011644582,-100.81347157689439,-512.0122583992735,1741600398.5790646
640,1,1,10,857,15,0.53271484375,0.84765625,-0.19189453125,-0.06103515625,1.708984375,-0.79345703125,63.86214363563357,-102.31034532209028,-489.4455614649544,1741600398.5854812
641,1,1,10,872,15,0.51904296875,0.8466796875,-0.21337890625,0.3662109375,1.89208984375,-0.79345703125,57.87464865484999,-96.3228503413067,-499.97668670097,1741600398.5970666
642,1,1,10,887,15,0.515625,0.8408203125,-0.197265625,0.48828125,1.708984375,-0.8544921875,66.85589112602536,-100.81347157689439,-504.49002608783377,1741600398.603475
643,1,1,10,902,15,0.5087890625,0.8408203125,-0.1962890625,0.79345703125,1.3427734375,-0.79345703125,59.3715224000459,-90.33535536052314,-493.95890085181816,1741600398.6099102
644,1,1,10,917,15,0.51953125,0.849609375,-0.17431640625,0.79345703125,0.79345703125,-0.54931640625,59.3715224000459,-93.32910285091494,-501.48113316325794,1741600398.616314
645,1,1,10,932,15,0.51513671875,0.85107421875,-0.19189453125,0.8544921875,-0.6103515625,-0.48828125,53.38402741926232,-102.31034532209028,-505.99447255012177,1741600398.6227438
646,1,1,10,947,15,0.5224609375,0.86181640625,-0.166015625,0.30517578125,-2.0751953125,-0.42724609375,63.86214363563357,-99.3165978316985,-505.99447255012177,1741600398.6291776
647,1,1,10,962,15,0.5341796875,0.86083984375,-0.16845703125,-0.48828125,-2.38037109375,-0.244140625,69.84963861641714,-87.34160787013136,-501.48113316325794,1741600398.6355898
648,1,1,10,977,15,0.5458984375,0.85888671875,-0.17041015625,-0.9765625,-1.03759765625,-0.42724609375,69.84963861641714,-111.29158779326563,-498.47224023868205,1741600398.6722496
649,1,1,10,992,15,0.5478515625,0.8583984375,-0.18212890625,-1.28173828125,0.3662109375,-0.54931640625,69.84963861641714,-93.32910285091494,-493.95890085181816,1741600398.6790984
650,1,1,11,7,15,0.5244140625,0.87158203125,-0.18505859375,-1.708984375,2.01416015625,-0.48828125,66.85589112602536,-82.85098663454367,-498.47224023868205,1741600398.6856084
651,1,1,11,22,15,0.5234375,0.85693359375,-0.189453125,-2.0751953125,2.86865234375,-0.9765625,60.86839614524178,-88.83848161532725,-502.9855796255459,1741600398.6920583
652,1,1,11,37,15,0.521484375,0.8525390625,-0.20556640625,-2.0751953125,3.7841796875,-1.03759765625,74.3402598520048,-88.83848161532725,-499.97668670097,1741600398.7285821
653,1,1,11,52,15,0.52099609375,0.84814453125,-0.19775390625,-2.197265625,4.7607421875,-1.46484375,69.84963861641714,-90.33535536052314,-493.95890085181816,1741600398.7351112
654,1,1,11,67,15,0.5224609375,0.84326171875,-0.21240234375,-2.3193359375,5.2490234375,-1.40380859375,57.87464865484999,-84.34786037973959,-499.97668670097,1741600398.7415526
655,1,1,11,82,15,0.5224609375,0.85205078125,-0.20458984375,-3.35693359375,6.65283203125,-1.64794921875,63.86214363563357,-91.83222910571904,-492.45445438953027,1741600398.7479784
656,1,1,11,97,15,0.51904296875,0.85302734375,-0.2109375,-4.150390625,7.32421875,-1.953125,86.31524981357195,-109.79471404806975,-481.92332915351466,1741600398.754384
657,1,1,11,112,15,0.53125,0.8583984375,-0.208984375,-4.45556640625,8.11767578125,-1.64794921875,44.40278494808696,-93.32910285091494,-504.49002608783377,1741600398.7661095
658,1,1,11,127,15,0.52099609375,0.87451171875,-0.22265625,-5.43212890625,9.27734375,-2.13623046875,51.887153674066425,-100.81347157689439,-515.0211513238494,1741600398.7725544
659,1,1,11,142,15,0.51025390625,0.84765625,-0.201171875,-5.615234375,9.8876953125,-1.77001953125,66.85589112602536,-97.81972408650262,-512.0122583992735,1741600398.8343573
660,1,1,11,157,15,0.50146484375,0.8427734375,-0.21435546875,-6.40869140625,9.82666015625,-2.0751953125,63.86214363563357,-96.3228503413067,-492.45445438953027,1741600398.840876
661,1,1,11,172,15,0.5078125,0.82861328125,-0.22900390625,-6.53076171875,9.33837890625,-2.5634765625,80.32775483278839,-97.81972408650262,-493.95890085181816,1741600398.8524213
662,1,1,11,187,15,0.50732421875,0.8349609375,-0.22314453125,-6.53076171875,10.25390625,-2.197265625,60.86839614524178,-96.3228503413067,-481.92332915351466,1741600398.8641255
663,1,1,11,202,15,0.4970703125,0.82470703125,-0.2236328125,-6.28662109375,11.3525390625,-2.197265625,59.3715224000459,-105.30409281248207,-501.48113316325794,1741600398.8705726
664,1,1,11,217,15,0.5185546875,0.833984375,-0.228515625,-5.7373046875,11.5966796875,-2.74658203125,71.34651236161304,-106.80096655767797,-495.4633473141061,1741600398.8769977
665,1,1,11,232,15,0.53125,0.83984375,-0.21533203125,-4.57763671875,13.73291015625,-2.74658203125,59.3715224000459,-111.29158779326563,-493.95890085181816,1741600398.8837137
666,1,1,11,247,15,0.50390625,0.849609375,-0.19384765625,-4.39453125,14.09912109375,-3.5400390625,53.38402741926232,-114.28533528365743,-502.9855796255459,1741600398.8953342
667,1,1,11,262,15,0.521484375,0.859375,-0.177734375,-4.8828125,13.85498046875,-3.41796875,59.3715224000459,-105.30409281248207,-498.47224023868205,1741600398.9017901
668,1,1,11,277,15,0.52294921875,0.861328125,-0.169921875,-5.37109375,14.09912109375,-3.96728515625,47.396532438478744,-109.79471404806975,-516.5255977861374,1741600398.9133253
669,1,1,11,292,15,0.52294921875,0.8642578125,-0.15576171875,-6.591796875,13.916015625,-3.90625,66.85589112602536,-100.81347157689439,-490.9500079272423,1741600398.9197721
670,1,1,11,307,15,0.52783203125,0.865234375,-0.1552734375,-7.080078125,14.34326171875,-4.150390625,66.85589112602536,-133.74469397120401,-512.0122583992735,1741600398.9261765
671,1,1,11,322,15,0.50732421875,0.8642578125,-0.16259765625,-7.75146484375,14.892578125,-4.21142578125,53.38402741926232,-120.272830264441,-502.9855796255459,1741600398.9340832
672,1,1,11,337,15,0.50341796875,0.8525390625,-0.1640625,-8.30078125,15.44189453125,-4.638671875,48.89340618367464,-118.77595651924511,-512.0122583992735,1741600398.9408078
673,1,1,11,352,15,0.5166015625,0.853515625,-0.1728515625,-8.36181640625,16.66259765625,-4.82177734375,50.390279928870534,-117.27908277404921,-505.99447255012177,1741600398.9524462
674,1,1,11,367,15,0.51708984375,0.86181640625,-0.17626953125,-8.544921875,17.822265625,-5.06591796875,66.85589112602536,-126.26032524522458,-507.4989190124097,1741600399.1151912
675,1,1,11,382,15,0.509765625,0.86279296875,-0.1796875,-8.48388671875,19.4091796875,-5.18798828125,50.390279928870534,-124.76345150002867,-513.5167048615615,1741600399.1218133
676,1,1,11,397,15,0.51611328125,0.8486328125,-0.16259765625,-8.1787109375,20.93505859375,-5.43212890625,33.924668731715705,-111.29158779326563,-528.5611694844409,1741600399.1282523
677,1,1,11,412,15,0.51123046875,0.85791015625,-0.14794921875,-7.9345703125,22.0947265625,-5.43212890625,59.3715224000459,-118.77595651924511,-512.0122583992735,1741600399.1346602
678,1,1,11,427,15,0.5087890625,0.85595703125,-0.15625,-8.30078125,22.3388671875,-5.67626953125,39.912163712499286,-120.272830264441,-524.0478300975772,1741600399.1410902
679,1,1,11,442,15,0.51220703125,0.8564453125,-0.15576171875,-8.23974609375,22.15576171875,-5.7373046875,57.87464865484999,-127.75719899042046,-505.99447255012177,1741600399.1475194
680,1,1,11,457,15,0.50048828125,0.86083984375,-0.142578125,-8.72802734375,21.54541015625,-5.67626953125,39.912163712499286,-142.72593644237938,-505.99447255012177,1741600399.153912
681,1,1,11,472,15,0.52001953125,0.87353515625,-0.134765625,-8.4228515625,21.240234375,-5.55419921875,33.924668731715705,-136.73844146159584,-515.0211513238494,1741600399.1603503
682,1,1,11,487,15,0.53076171875,0.8818359375,-0.115234375,-9.27734375,21.3623046875,-4.94384765625,38.415289967303394,-136.73844146159584,-515.0211513238494,1741600399.16692
683,1,1,11,502,15,0.5009765625,0.9033203125,-0.0830078125,-11.04736328125,21.30126953125,-4.8828125,44.40278494808696,-136.73844146159584,-515.0211513238494,1741600399.173318
684,1,1,11,517,15,0.50634765625,0.90234375,-0.0791015625,-13.36669921875,20.93505859375,-5.126953125,44.40278494808696,-136.73844146159584,-512.0122583992735,1741600399.1797483
685,1,1,11,532,15,0.51708984375,0.8876953125,-0.08544921875,-14.5263671875,22.52197265625,-5.2490234375,38.415289967303394,-129.25407273561638,-515.0211513238494,1741600399.186141
686,1,1,11,547,15,0.51416015625,0.888671875,-0.08447265625,-14.5263671875,24.169921875,-5.06591796875,39.912163712499286,-148.71343142316294,-519.5344907107133,1741600399.1925895
687,1,1,11,562,15,0.50439453125,0.85498046875,-0.07470703125,-14.404296875,25.93994140625,-5.4931640625,27.937173750932143,-151.70717891355474,-512.0122583992735,1741600399.1990073
688,1,1,11,577,15,0.49609375,0.85791015625,-0.09375,-13.00048828125,27.16064453125,-5.9814453125,27.937173750932143,-151.70717891355474,-515.0211513238494,1741600399.2053943
689,1,1,11,592,15,0.51513671875,0.84423828125,-0.0810546875,-11.5966796875,28.4423828125,-6.04248046875,23.44655251534446,-157.69467389433834,-528.5611694844409,1741600399.2118282
690,1,1,11,607,15,0.6181640625,0.88916015625,-0.0341796875,-9.58251953125,29.47998046875,-5.55419921875,21.949678770148566,-156.19780014914244,-524.0478300975772,1741600399.2182462
691,1,1,11,622,15,0.54833984375,1.0419921875,0.1591796875,-17.822265625,22.52197265625,-5.126953125,32.42779498651982,-160.6884213847301,-527.0567230221529,1741600399.2517536
692,1,1,11,637,15,0.4296875,0.97900390625,0.1328125,-23.92578125,28.74755859375,-7.99560546875,35.421542476911604,-160.6884213847301,-516.5255977861374,1741600399.258206
693,1,1,11,652,15,0.4873046875,0.8916015625,0.00341796875,-24.4140625,28.4423828125,-8.30078125,27.937173750932143,-147.21655767796707,-525.5522765598652,1741600399.2645936
694,1,1,11,667,15,0.50634765625,0.83642578125,-0.05810546875,-19.47021484375,31.6162109375,-7.87353515625,12.968436298973211,-175.65715883668904,-525.5522765598652,1741600399.2710166
695,1,1,11,682,15,0.4853515625,0.83203125,-0.04248046875,-15.0146484375,30.09033203125,-5.92041015625,15.962183789364998,-172.66341134629724,-528.5611694844409,1741600399.2865944
696,1,1,11,697,15,0.486328125,0.8671875,-0.00634765625,-12.14599609375,27.52685546875,-5.43212890625,8.477815063385535,-189.12902254345207,-534.5789553335927,1741600399.2930176
697,1,1,11,712,15,0.4931640625,0.88427734375,0.025390625,-11.1083984375,27.4658203125,-6.65283203125,9.974688808581426,-180.1477800722767,-549.6234199564722,1741600399.299445
698,1,1,11,727,15,0.49267578125,0.900390625,0.03271484375,-10.80322265625,28.076171875,-7.38525390625,5.484067572993745,-198.11026501462743,-528.5611694844409,1741600399.3058317
699,1,1,11,742,15,0.4853515625,0.90771484375,0.046875,-9.94873046875,28.564453125,-7.32421875,3.9871938277978547,-192.12277003384384,-545.1100805696084,1741600399.3122654
700,1,1,11,757,15,0.4931640625,0.90283203125,0.0185546875,-9.70458984375,27.34375,-5.7373046875,-3.4971748981816093,-189.12902254345207,-537.5878482581686,1741600399.3186967
701,1,1,11,772,15,0.470703125,0.89599609375,0.00244140625,-8.1787109375,24.59716796875,-5.18798828125,18.955931279756783,-196.61339126943153,-540.5967411827445,1741600399.3250973
702,1,1,11,787,15,0.48486328125,0.88916015625,-0.013671875,-7.01904296875,21.8505859375,-4.82177734375,3.9871938277978547,-199.60713875982333,-527.0567230221529,1741600399.3315277
703,1,1,11,802,15,0.484375,0.88330078125,0.009765625,-6.40869140625,19.83642578125,-4.39453125,-4.994048643377503,-190.62589628864794,-525.5522765598652,1741600399.3432994
704,1,1,11,817,15,0.48486328125,0.88720703125,0.02099609375,-5.79833984375,18.06640625,-3.84521484375,11.471562553777316,-207.0915074858028,-530.0656159467288,1741600399.3497598
705,1,1,11,832,15,0.50732421875,0.888671875,0.02490234375,-5.67626953125,16.6015625,-3.47900390625,-0.5034274077898239,-190.62589628864794,-539.0922947204566,1741600399.3561473
706,1,1,11,847,15,0.49365234375,0.87890625,0.0634765625,-6.16455078125,16.4794921875,-2.99072265625,3.9871938277978547,-196.61339126943153,-534.5789553335927,1741600399.3625839
707,1,1,11,862,15,0.490234375,0.892578125,0.06396484375,-5.9814453125,16.78466796875,-2.5634765625,-0.5034274077898239,-222.06024493776172,-522.5433836352892,1741600399.3690138
708,1,1,11,877,15,0.48828125,0.88330078125,0.0537109375,-5.7373046875,17.15087890625,-2.38037109375,2.490320082601962,-222.06024493776172,-533.0745088713047,1741600399.3754048
709,1,1,11,892,15,0.4873046875,0.87939453125,0.0673828125,-5.37109375,17.51708984375,-1.8310546875,12.968436298973211,-205.59463374060687,-539.0922947204566,1741600399.3818185
710,1,1,11,907,15,0.48681640625,0.88623046875,0.0791015625,-5.06591796875,17.39501953125,-1.708984375,-3.4971748981816093,-213.07900246658636,-551.1278664187602,1741600399.388243
711,1,1,11,922,15,0.48876953125,0.89013671875,0.083984375,-5.0048828125,17.39501953125,-1.46484375,-6.490922388573395,-210.08525497619456,-545.1100805696084,1741600399.3946373
712,1,1,11,937,15,0.48095703125,0.88916015625,0.08935546875,-4.39453125,18.310546875,-1.40380859375,2.490320082601962,-216.07274995697813,-522.5433836352892,1741600399.4397635
713,1,1,11,952,15,0.46923828125,0.9013671875,0.087890625,-3.662109375,18.1884765625,-1.52587890625,-0.5034274077898239,-222.06024493776172,-522.5433836352892,1741600399.4478097
714,1,1,11,967,15,0.45849609375,0.8916015625,0.09912109375,-3.90625,17.39501953125,-1.64794921875,8.477815063385535,-225.0539924281535,-519.5344907107133,1741600399.455784
715,1,1,11,982,15,0.4609375,0.8837890625,0.103515625,-3.662109375,15.869140625,-1.77001953125,8.477815063385535,-228.0477399185453,-530.0656159467288,1741600399.4641113
716,1,1,11,997,15,0.4697265625,0.892578125,0.107421875,-3.0517578125,14.5263671875,-1.77001953125,2.490320082601962,-211.58212872139046,-528.5611694844409,1741600399.472468
717,1,1,12,12,15,0.45849609375,0.90185546875,0.12158203125,-3.0517578125,12.75634765625,-1.77001953125,-13.97529111455286,-229.54461366374116,-546.6145270318963,1741600399.4805095
