Processed,Time(h),Time(m),Time(s),Time(ms),Delt,AccX,AccY,AccZ,GyroX,GyroY,GyroZ,MagX,MagY,MagZ,PCTimestamp
1,1,1,1,263,3661263,0.212890625,0.9892578125,-0.11279296875,-0.06103515625,-0.1220703125,-0.06103515625,-310.3562926633397,107.2519790053347,-81.74057018492094,1741601407.2985823
2,1,1,1,278,15,0.21923828125,0.98046875,-0.0966796875,-0.244140625,0.18310546875,-0.18310546875,-305.8656714277519,92.28324155337577,-63.68721263746558,1741601407.3050098
3,1,1,1,293,15,0.2138671875,0.97314453125,-0.09326171875,-0.18310546875,0.42724609375,-0.18310546875,-302.8719239373602,95.27698904376757,-68.20055202432943,1741601407.311621
4,1,1,1,308,15,0.21630859375,0.98046875,-0.095703125,-0.1220703125,0.244140625,-0.06103515625,-313.3500401537314,84.79887282739631,-71.20944494890531,1741601407.3187675
5,1,1,1,323,15,0.21630859375,0.984375,-0.09765625,0.0,0.244140625,0.0,-316.3437876441232,89.28949406298399,-74.2183378734812,1741601407.3269281
6,1,1,1,338,15,0.2197265625,0.97705078125,-0.11083984375,-0.18310546875,0.54931640625,-0.18310546875,-314.8469138989273,90.78636780817989,-69.70499848661737,1741601407.333408
7,1,1,1,353,15,0.203125,0.98193359375,-0.1025390625,-0.1220703125,0.54931640625,-0.06103515625,-326.82190386049444,99.76761027935525,-77.22723079805711,1741601407.340514
8,1,1,1,368,15,0.21435546875,0.978515625,-0.11083984375,-0.06103515625,0.30517578125,0.0,-322.3312826249068,108.7488527505306,-65.19165909975354,1741601407.3468993
9,1,1,1,383,15,0.2099609375,0.98583984375,-0.0966796875,0.0,0.42724609375,-0.06103515625,-323.82815637010265,99.76761027935525,-68.20055202432943,1741601407.353309
10,1,1,1,398,15,0.208984375,0.9892578125,-0.10595703125,-0.1220703125,0.18310546875,0.0,-323.82815637010265,95.27698904376757,-63.68721263746558,1741601407.360397
11,1,1,1,413,15,0.21533203125,0.99169921875,-0.09228515625,0.0,0.1220703125,0.30517578125,-307.3625451729478,101.26448402455115,-65.19165909975354,1741601407.3668437
12,1,1,1,428,15,0.2158203125,0.97900390625,-0.09716796875,0.0,0.244140625,0.30517578125,-302.8719239373602,95.27698904376757,-74.2183378734812,1741601407.9197812
13,1,1,1,443,15,0.21142578125,0.98291015625,-0.10498046875,0.0,0.42724609375,0.30517578125,-311.85316640853557,75.81763035622096,-75.72278433576916,1741601407.926197
14,1,1,1,458,15,0.2177734375,0.98291015625,-0.1015625,-0.06103515625,0.0,0.244140625,-320.8344088797109,92.28324155337577,-74.2183378734812,1741601407.939466
15,1,1,1,473,15,0.21240234375,0.9794921875,-0.1025390625,-0.18310546875,-0.06103515625,0.1220703125,-313.3500401537314,102.76135776974702,-74.2183378734812,1741601407.945881
16,1,1,1,488,15,0.22314453125,0.98486328125,-0.10107421875,-0.06103515625,-0.06103515625,0.0,-316.3437876441232,102.76135776974702,-77.22723079805711,1741601407.9523697
17,1,1,1,503,15,0.216796875,0.98193359375,-0.10107421875,0.0,0.06103515625,0.06103515625,-316.3437876441232,95.27698904376757,-77.22723079805711,1741601407.9587462
18,1,1,1,518,15,0.208984375,0.9853515625,-0.0986328125,0.06103515625,0.1220703125,0.18310546875,-314.8469138989273,98.27073653415934,-69.70499848661737,1741601407.965203
19,1,1,1,533,15,0.20751953125,0.97998046875,-0.111328125,0.0,-0.18310546875,0.1220703125,-311.85316640853557,93.78011529857167,-72.71389141119326,1741601407.9717011
20,1,1,1,548,15,0.21533203125,0.9833984375,-0.1005859375,0.0,-0.06103515625,0.06103515625,-317.8406613893191,104.25823151494292,-65.19165909975354,1741601407.9781544
21,1,1,1,563,15,0.21923828125,0.98876953125,-0.09716796875,0.0,-0.06103515625,0.1220703125,-311.85316640853557,108.7488527505306,-72.71389141119326,1741601407.9855347
22,1,1,1,578,15,0.208984375,0.98095703125,-0.0966796875,-0.30517578125,0.0,0.06103515625,-317.8406613893191,108.7488527505306,-72.71389141119326,1741601407.9920769
23,1,1,1,593,15,0.21826171875,0.9892578125,-0.09228515625,-0.1220703125,0.06103515625,0.18310546875,-311.85316640853557,98.27073653415934,-75.72278433576916,1741601407.9984643
24,1,1,1,608,15,0.21435546875,0.98095703125,-0.09814453125,-0.30517578125,-0.3662109375,0.244140625,-316.3437876441232,78.81137784661274,-81.74057018492094,1741601408.004883
25,1,1,1,623,15,0.21044921875,0.990234375,-0.10791015625,-0.244140625,-0.244140625,0.18310546875,-310.3562926633397,95.27698904376757,-81.74057018492094,1741601408.255212
26,1,1,1,638,15,0.21240234375,0.9814453125,-0.0830078125,-0.1220703125,0.0,0.06103515625,-325.32503011529855,75.81763035622096,-72.71389141119326,1741601408.2617865
27,1,1,1,653,15,0.21826171875,0.9814453125,-0.10498046875,-0.06103515625,-0.18310546875,0.244140625,-302.8719239373602,84.79887282739631,-68.20055202432943,1741601408.2681828
28,1,1,1,668,15,0.21728515625,0.98583984375,-0.08447265625,-0.1220703125,-0.42724609375,0.0,-313.3500401537314,92.28324155337577,-77.22723079805711,1741601408.2746036
29,1,1,1,683,15,0.21826171875,0.98095703125,-0.103515625,-0.30517578125,-0.18310546875,0.0,-320.8344088797109,102.76135776974702,-77.22723079805711,1741601408.8727195
30,1,1,1,698,15,0.21533203125,0.98583984375,-0.09521484375,-0.244140625,0.06103515625,0.0,-317.8406613893191,90.78636780817989,-62.18276617517764,1741601408.8791301
31,1,1,1,713,15,0.20458984375,0.978515625,-0.10498046875,-0.3662109375,0.244140625,-0.1220703125,-302.8719239373602,99.76761027935525,-68.20055202432943,1741601408.8970654
32,1,1,1,728,15,0.20263671875,0.984375,-0.0966796875,-0.30517578125,0.0,-0.18310546875,-314.8469138989273,101.26448402455115,-75.72278433576916,1741601408.9035525
33,1,1,1,743,15,0.20361328125,0.98193359375,-0.1083984375,-0.244140625,-0.30517578125,0.0,-320.8344088797109,102.76135776974702,-74.2183378734812,1741601408.9099886
34,1,1,1,758,15,0.22802734375,0.98193359375,-0.11328125,-0.244140625,0.06103515625,0.0,-304.368797682556,93.78011529857167,-65.19165909975354,1741601408.917122
35,1,1,1,773,15,0.216796875,0.9814453125,-0.08837890625,-0.06103515625,-0.06103515625,0.0,-313.3500401537314,84.79887282739631,-71.20944494890531,1741601408.924131
36,1,1,1,788,15,0.21533203125,0.98876953125,-0.09375,-0.06103515625,0.06103515625,0.0,-316.3437876441232,125.21446394768543,-71.20944494890531,1741601408.930576
37,1,1,1,803,15,0.21435546875,0.98486328125,-0.09765625,0.06103515625,-0.1220703125,0.1220703125,-313.3500401537314,89.28949406298399,-81.74057018492094,1741601408.946499
38,1,1,1,818,15,0.2119140625,0.9814453125,-0.1064453125,0.06103515625,-0.06103515625,0.0,-310.3562926633397,99.76761027935525,-77.22723079805711,1741601408.9554112
39,1,1,1,833,15,0.2158203125,0.986328125,-0.08740234375,-0.18310546875,-0.1220703125,0.06103515625,-298.3813027017725,102.76135776974702,-71.20944494890531,1741601408.9618845
40,1,1,1,848,15,0.21533203125,0.98681640625,-0.08935546875,-0.1220703125,0.0,-0.06103515625,-325.32503011529855,108.7488527505306,-69.70499848661737,1741601408.9682636
41,1,1,1,863,15,0.21533203125,0.9794921875,-0.09521484375,-0.1220703125,0.0,0.0,-325.32503011529855,80.30825159180864,-62.18276617517764,1741601408.975434
42,1,1,1,878,15,0.2177734375,0.98046875,-0.10009765625,-0.1220703125,-0.3662109375,0.1220703125,-311.85316640853557,90.78636780817989,-86.25390957178477,1741601408.9818861
43,1,1,1,893,15,0.21826171875,0.98779296875,-0.08740234375,-0.06103515625,-0.244140625,0.0,-313.3500401537314,95.27698904376757,-87.75835603407272,1741601408.9882715
44,1,1,1,908,15,0.22314453125,0.98291015625,-0.091796875,-0.06103515625,-0.1220703125,0.0,-316.3437876441232,110.2457264957265,-71.20944494890531,1741601409.022204
45,1,1,1,923,15,0.2177734375,0.98681640625,-0.10107421875,-0.1220703125,0.06103515625,-0.1220703125,-322.3312826249068,90.78636780817989,-72.71389141119326,1741601409.0285995
46,1,1,1,938,15,0.20947265625,0.98583984375,-0.10595703125,0.06103515625,-0.06103515625,-0.06103515625,-313.3500401537314,92.28324155337577,-60.678319712889696,1741601409.0350225
47,1,1,1,953,15,0.2265625,0.9853515625,-0.09716796875,0.06103515625,-0.1220703125,-0.244140625,-314.8469138989273,93.78011529857167,-62.18276617517764,1741601409.0423527
48,1,1,1,968,15,0.22265625,0.98974609375,-0.103515625,-0.244140625,0.0,-0.18310546875,-310.3562926633397,95.27698904376757,-63.68721263746558,1741601409.0912986
49,1,1,1,983,15,0.21435546875,0.98291015625,-0.0888671875,0.0,0.0,-0.244140625,-311.85316640853557,93.78011529857167,-72.71389141119326,1741601409.1196706
50,1,1,1,998,15,0.2197265625,0.97998046875,-0.099609375,0.0,0.0,0.0,-317.8406613893191,87.79262031778809,-65.19165909975354,1741601409.1538484
51,1,1,2,13,15,0.22216796875,0.97802734375,-0.09521484375,0.0,0.0,-0.18310546875,-316.3437876441232,89.28949406298399,-63.68721263746558,1741601409.1797452
52,1,1,2,28,15,0.22021484375,0.98681640625,-0.103515625,-0.1220703125,0.1220703125,-0.3662109375,-311.85316640853557,98.27073653415934,-75.72278433576916,1741601409.186751
53,1,1,2,43,15,0.21484375,0.98095703125,-0.09912109375,0.06103515625,0.18310546875,-0.42724609375,-311.85316640853557,87.79262031778809,-80.236123722633,1741601409.193186
54,1,1,2,58,15,0.2080078125,0.98388671875,-0.09619140625,0.0,0.18310546875,-0.42724609375,-298.3813027017725,81.80512533700454,-77.22723079805711,1741601409.2005866
55,1,1,2,73,15,0.21240234375,0.98095703125,-0.07763671875,0.0,0.18310546875,-0.67138671875,-305.8656714277519,107.2519790053347,-71.20944494890531,1741601409.2164526
56,1,1,2,88,15,0.21923828125,0.98193359375,-0.10302734375,0.0,0.30517578125,-0.67138671875,-325.32503011529855,101.26448402455115,-59.17387325060175,1741601409.233558
57,1,1,2,103,15,0.22216796875,0.97998046875,-0.08740234375,-0.3662109375,0.0,-0.79345703125,-310.3562926633397,107.2519790053347,-68.20055202432943,1741601409.2399702
58,1,1,2,118,15,0.23681640625,0.978515625,-0.103515625,0.1220703125,0.6103515625,-1.28173828125,-314.8469138989273,98.27073653415934,-62.18276617517764,1741601409.2467954
59,1,1,2,133,15,0.22509765625,0.994140625,-0.10205078125,0.244140625,1.5869140625,-1.52587890625,-307.3625451729478,98.27073653415934,-69.70499848661737,1741601409.253627
60,1,1,2,148,15,0.20361328125,0.98974609375,-0.1083984375,0.06103515625,1.03759765625,-0.8544921875,-320.8344088797109,92.28324155337577,-84.74946310949683,1741601409.2600589
61,1,1,2,163,15,0.21240234375,0.990234375,-0.09716796875,0.06103515625,0.06103515625,-0.3662109375,-317.8406613893191,87.79262031778809,-72.71389141119326,1741601409.2665234
62,1,1,2,178,15,0.21142578125,0.9853515625,-0.09814453125,0.06103515625,-0.18310546875,0.0,-298.3813027017725,102.76135776974702,-92.27169542093657,1741601409.2730532
63,1,1,2,193,15,0.21435546875,0.99169921875,-0.09521484375,0.244140625,0.732421875,-0.244140625,-331.31252509608214,95.27698904376757,-74.2183378734812,1741601410.8924239
64,1,1,2,208,15,0.2275390625,0.99462890625,-0.08935546875,0.3662109375,2.01416015625,-0.244140625,-311.85316640853557,90.78636780817989,-62.18276617517764,1741601410.9085076
65,1,1,2,223,15,0.224609375,0.994140625,-0.1015625,0.30517578125,2.01416015625,-0.30517578125,-322.3312826249068,104.25823151494292,-59.17387325060175,1741601410.917627
66,1,1,2,238,15,0.228515625,0.97900390625,-0.10302734375,0.3662109375,1.5869140625,-1.15966796875,-314.8469138989273,93.78011529857167,-86.25390957178477,1741601410.9248848
67,1,1,2,253,15,0.228515625,0.9794921875,-0.080078125,0.67138671875,1.77001953125,-2.38037109375,-317.8406613893191,98.27073653415934,-80.236123722633,1741601410.9313357
68,1,1,2,268,15,0.22802734375,0.9931640625,-0.1025390625,0.42724609375,1.8310546875,-2.99072265625,-316.3437876441232,99.76761027935525,-74.2183378734812,1741601410.9389024
69,1,1,2,283,15,0.2216796875,0.97705078125,-0.091796875,0.79345703125,2.62451171875,-4.0283203125,-323.82815637010265,99.76761027935525,-68.20055202432943,1741601410.962708
70,1,1,2,298,15,0.21630859375,0.984375,-0.0986328125,1.52587890625,3.2958984375,-4.5166015625,-332.809398841278,93.78011529857167,-72.71389141119326,1741601410.9691021
71,1,1,2,313,15,0.19482421875,0.99462890625,-0.1064453125,1.953125,2.74658203125,-3.96728515625,-326.82190386049444,102.76135776974702,-68.20055202432943,1741601410.9759092
72,1,1,2,328,15,0.16943359375,0.9970703125,-0.09912109375,1.5869140625,0.54931640625,-2.3193359375,-313.3500401537314,107.2519790053347,-81.74057018492094,1741601410.9824612
73,1,1,2,343,15,0.19482421875,0.97802734375,-0.1103515625,1.89208984375,-0.1220703125,-0.48828125,-313.3500401537314,95.27698904376757,-77.22723079805711,1741601411.018545
74,1,1,2,358,15,0.22509765625,0.97802734375,-0.177734375,2.01416015625,8.6669921875,0.3662109375,-317.8406613893191,104.25823151494292,-75.72278433576916,1741601411.0261812
75,1,1,2,373,15,0.33447265625,0.953125,-0.12060546875,2.25830078125,31.25,1.52587890625,-313.3500401537314,102.76135776974702,-63.68721263746558,1741601411.032635
76,1,1,2,388,15,0.29443359375,0.94482421875,-0.0908203125,1.3427734375,33.0810546875,-1.8310546875,-311.85316640853557,104.25823151494292,-75.72278433576916,1741601411.0406408
77,1,1,2,403,15,0.345703125,0.96875,-0.07373046875,0.67138671875,34.912109375,-11.65771484375,-307.3625451729478,101.26448402455115,-83.24501664720889,1741601411.047705
78,1,1,2,418,15,0.33447265625,1.00830078125,-0.0693359375,5.9814453125,45.22705078125,-15.13671875,-320.8344088797109,99.76761027935525,-81.74057018492094,1741601411.0541487
79,1,1,2,433,15,0.14697265625,0.9951171875,-0.0380859375,2.3193359375,50.96435546875,-27.16064453125,-301.3750501921643,80.30825159180864,-93.77614188322451,1741601411.0609598
80,1,1,2,448,15,0.150390625,0.9775390625,-0.03125,3.2958984375,50.72021484375,-38.02490234375,-307.3625451729478,72.82388286582916,-96.7850348078004,1741601411.0681949
81,1,1,2,463,15,0.29931640625,1.02294921875,0.0283203125,7.568359375,53.5888671875,-54.5654296875,-301.3750501921643,98.27073653415934,-83.24501664720889,1741601411.07465
82,1,1,2,478,15,0.294921875,1.03564453125,-0.01220703125,15.625,56.5185546875,-65.36865234375,-310.3562926633397,102.76135776974702,-105.81171358152808,1741601411.0810819
83,1,1,2,493,15,0.17333984375,1.0615234375,0.02685546875,21.8505859375,52.6123046875,-80.62744140625,-295.3875552113807,110.2457264957265,-92.27169542093657,1741601411.1412976
84,1,1,2,508,15,0.208984375,1.0419921875,-0.046875,22.8271484375,45.166015625,-96.5576171875,-284.90943899500945,102.76135776974702,-98.28948127008834,1741601411.1483617
85,1,1,2,523,15,0.298828125,0.9111328125,-0.22021484375,27.16064453125,43.27392578125,-103.6376953125,-281.9156915046177,117.73009522170595,-108.82060650610397,1741601411.1754484
86,1,1,2,538,15,0.2705078125,0.81298828125,-0.18212890625,29.296875,52.18505859375,-98.14453125,-281.9156915046177,113.23947398611827,-105.81171358152808,1741601411.182196
87,1,1,2,553,15,0.03173828125,0.716796875,-0.3173828125,31.18896484375,61.21826171875,-82.58056640625,-281.9156915046177,110.2457264957265,-119.35173174211958,1741601411.1907601
88,1,1,2,568,15,-0.34423828125,0.7607421875,-0.23583984375,28.50341796875,57.55615234375,-62.56103515625,-262.4563328170711,108.7488527505306,-120.85617820440754,1741601411.1971874
89,1,1,2,583,15,-0.25537109375,0.92236328125,-0.12548828125,23.681640625,44.61669921875,-51.8798828125,-268.4438277978546,98.27073653415934,-128.37841051584726,1741601411.2036133
90,1,1,2,598,15,-0.11572265625,0.9189453125,-0.0166015625,21.728515625,34.1796875,-35.70556640625,-245.99072161991626,107.2519790053347,-122.36062466669549,1741601411.2107728
91,1,1,2,613,15,-0.09423828125,1.0390625,0.0810546875,23.62060546875,33.26416015625,-28.62548828125,-253.4750903458957,102.76135776974702,-129.8828569781352,1741601411.2171838
92,1,1,2,628,15,-0.0224609375,1.10302734375,0.11767578125,25.7568359375,32.53173828125,-24.10888671875,-256.4688378362875,117.73009522170595,-140.41398221415082,1741601411.2236705
93,1,1,2,643,15,0.00390625,1.07177734375,0.0849609375,30.029296875,30.82275390625,-20.69091796875,-247.48759536511216,116.23322147651005,-138.9095357518629,1741601411.2308683
94,1,1,2,658,15,-0.08349609375,1.0029296875,-0.04638671875,33.75244140625,28.50341796875,-18.310546875,-247.48759536511216,116.23322147651005,-134.39619636499907,1741601411.237286
95,1,1,2,673,15,-0.05859375,0.99609375,-0.24462890625,32.65380859375,9.8876953125,-16.845703125,-238.50635289393676,99.76761027935525,-156.96289329931824,1741601411.2451253
96,1,1,2,688,15,0.13818359375,1.08349609375,-0.43212890625,29.84619140625,-5.79833984375,-17.76123046875,-240.00322663913266,101.26448402455115,-158.4673397616062,1741601411.2523603
97,1,1,2,703,15,0.0595703125,1.10791015625,-0.45361328125,23.98681640625,-11.962890625,-16.4794921875,-237.0094791487409,116.23322147651005,-138.9095357518629,1741601411.2587974
98,1,1,2,718,15,-0.09375,1.046875,-0.41015625,15.56396484375,-17.578125,-15.2587890625,-250.48134285550393,104.25823151494292,-128.37841051584726,1741601411.271523
99,1,1,2,733,15,-0.046875,1.0732421875,-0.267578125,8.11767578125,-24.4140625,-12.51220703125,-235.512605403545,120.72384271209773,-140.41398221415082,1741601411.277914
100,1,1,2,748,15,-0.06689453125,1.052734375,-0.2001953125,4.45556640625,-26.2451171875,-9.09423828125,-240.00322663913266,108.7488527505306,-138.9095357518629,1741601411.2914214
101,1,1,2,763,15,0.00830078125,1.00830078125,-0.19287109375,4.5166015625,-22.4609375,-7.62939453125,-225.03448918717373,113.23947398611827,-140.41398221415082,1741601411.297833
102,1,1,2,778,15,-0.103515625,1.03125,-0.21337890625,5.7373046875,-17.08984375,-6.34765625,-244.49384787472036,104.25823151494292,-128.37841051584726,1741601412.5464177
103,1,1,2,793,15,-0.10302734375,1.00927734375,-0.24609375,2.38037109375,-16.90673828125,-4.82177734375,-235.512605403545,107.2519790053347,-132.89174990271113,1741601412.5528762
104,1,1,2,808,15,-0.072265625,1.009765625,-0.296875,-1.40380859375,-23.98681640625,-2.38037109375,-238.50635289393676,107.2519790053347,-132.89174990271113,1741601412.5594895
105,1,1,2,823,15,-0.02587890625,0.96337890625,-0.2919921875,-5.9814453125,-29.6630859375,-1.220703125,-237.0094791487409,122.22071645729363,-138.9095357518629,1741601412.5660186
106,1,1,2,838,15,0.00146484375,0.98095703125,-0.333984375,-10.498046875,-36.19384765625,-1.953125,-242.99697412952446,125.21446394768543,-122.36062466669549,1741601412.5726051
107,1,1,2,853,15,-0.0029296875,0.95556640625,-0.2978515625,-13.427734375,-41.93115234375,-2.685546875,-237.0094791487409,116.23322147651005,-134.39619636499907,1741601412.5790815
108,1,1,2,868,15,0.04443359375,0.958984375,-0.24658203125,-14.16015625,-49.072265625,-4.7607421875,-240.00322663913266,126.7113376928813,-123.86507112898344,1741601412.5855198
109,1,1,2,883,15,0.060546875,0.9951171875,-0.17626953125,-15.5029296875,-49.01123046875,-9.1552734375,-240.00322663913266,126.7113376928813,-131.38730344042315,1741601412.6275969
110,1,1,2,898,15,0.0390625,0.98876953125,-0.1962890625,-16.2353515625,-50.35400390625,-12.20703125,-235.512605403545,131.201958928469,-119.35173174211958,1741601412.6340775
111,1,1,2,913,15,0.06787109375,1.0166015625,-0.1796875,-16.357421875,-42.6025390625,-18.310546875,-228.02823667756553,117.73009522170595,-116.34283881754371,1741601412.640684
112,1,1,2,928,15,0.05322265625,1.025390625,-0.15673828125,-17.578125,-44.37255859375,-21.240234375,-240.00322663913266,126.7113376928813,-104.30726711924014,1741601412.6470838
113,1,1,2,943,15,-0.00732421875,1.06103515625,-0.1865234375,-20.56884765625,-43.8232421875,-25.93994140625,-234.0157316583491,129.7050851832731,-123.86507112898344,1741601412.6535108
114,1,1,2,958,15,-0.02880859375,1.04833984375,-0.189453125,-22.15576171875,-48.33984375,-30.1513671875,-219.0469942063902,119.22696896690185,-99.7939277323763,1741601412.660044
115,1,1,2,973,15,-0.0517578125,1.1025390625,-0.15380859375,-23.0712890625,-48.52294921875,-34.423828125,-217.5501204611943,135.69258016405666,-119.35173174211958,1741601412.6664736
116,1,1,2,988,15,-0.10400390625,1.10400390625,-0.150390625,-24.0478515625,-54.62646484375,-38.87939453125,-231.02198416795733,120.72384271209773,-102.80282065695218,1741601412.6734862
117,1,1,3,3,15,-0.0478515625,1.11865234375,-0.10888671875,-25.146484375,-59.87548828125,-44.98291015625,-226.53136293236963,147.66757012562383,-86.25390957178477,1741601412.7579165
118,1,1,3,18,15,-0.06640625,1.13623046875,-0.10693359375,-27.64892578125,-64.0869140625,-51.69677734375,-229.5251104227614,140.18320139964433,-90.76724895864861,1741601412.76511
119,1,1,3,33,15,-0.0244140625,1.16650390625,-0.1240234375,-29.052734375,-64.51416015625,-62.01171875,-226.53136293236963,122.22071645729363,-75.72278433576916,1741601412.7729232
120,1,1,3,48,15,-0.0263671875,1.18896484375,-0.22607421875,-31.25,-57.7392578125,-70.3125,-208.56887799001893,134.1957064188608,-83.24501664720889,1741601412.779329
121,1,1,3,63,15,0.01953125,1.3134765625,-0.0322265625,-35.46142578125,-49.8046875,-80.74951171875,-217.5501204611943,135.69258016405666,-81.74057018492094,1741601412.7865975
122,1,1,3,78,15,-0.0205078125,1.3896484375,-0.029296875,-34.48486328125,-56.45751953125,-81.35986328125,-216.05324671599837,140.18320139964433,-69.70499848661737,1741601412.7930617
123,1,1,3,93,15,0.13134765625,1.39892578125,0.0126953125,-39.36767578125,-49.25537109375,-90.4541015625,-196.59388802845177,135.69258016405666,-74.2183378734812,1741601412.799562
124,1,1,3,108,15,0.19580078125,1.4228515625,-0.0322265625,-39.85595703125,-35.64453125,-97.5341796875,-190.6063930476682,129.7050851832731,-75.72278433576916,1741601412.8067195
125,1,1,3,123,15,0.21875,1.4638671875,-0.08544921875,-42.54150390625,-21.05712890625,-107.0556640625,-181.62515057649284,153.6550651064074,-60.678319712889696,1741601412.8131604
126,1,1,3,138,15,0.29150390625,1.43115234375,-0.16748046875,-46.0205078125,-16.66259765625,-117.0654296875,-180.12827683129697,137.18945390925256,-51.651640939162014,1741601412.820016
127,1,1,3,153,15,0.4228515625,1.41015625,-0.28076171875,-47.18017578125,-20.1416015625,-127.8076171875,-175.6376555957093,135.69258016405666,-50.14719447687407,1741601412.8284087
128,1,1,3,168,15,0.53955078125,1.4453125,-0.40673828125,-44.49462890625,-27.9541015625,-140.80810546875,-157.67517065335855,125.21446394768543,-50.14719447687407,1741601412.8348622
129,1,1,3,183,15,0.7392578125,1.4814453125,-0.58447265625,-38.14697265625,-53.64990234375,-149.71923828125,-160.66891814375037,146.17069638042793,-36.607176316282555,1741601412.8412843
130,1,1,3,198,15,0.861328125,1.56591796875,-0.7099609375,-30.33447265625,-101.74560546875,-147.39990234375,-123.24707451385304,137.18945390925256,-38.1116227785705,1741601412.8483553
131,1,1,3,213,15,0.7734375,1.5048828125,-0.8349609375,-31.25,-157.2265625,-138.427734375,-124.74394825904892,125.21446394768543,-33.59828339170666,1741601412.8602834
132,1,1,3,228,15,0.31298828125,1.462890625,-0.4970703125,-32.89794921875,-186.03515625,-157.28759765625,-96.30334710032696,135.69258016405666,-33.59828339170666,1741601412.8674786
133,1,1,3,243,15,0.05908203125,1.8642578125,-0.501953125,-76.47705078125,-164.55078125,-200.5615234375,-94.80647335513108,122.22071645729363,-21.56271169340309,1741601412.875293
134,1,1,3,258,15,0.4892578125,1.884765625,-0.8037109375,-85.5712890625,-129.57763671875,-179.87060546875,-84.32835713875981,116.23322147651005,11.535110476931724,1741601412.881762
135,1,1,3,273,15,0.57861328125,1.4833984375,-0.5498046875,-63.720703125,-60.60791015625,-149.2919921875,-63.37212470601732,108.7488527505306,2.508431703204047,1741601412.8888905
136,1,1,3,288,15,-0.21826171875,0.8271484375,-0.9287109375,2.3193359375,27.099609375,-144.34814453125,-55.88775598003785,111.74260024092237,11.535110476931724,1741601412.8953452
137,1,1,3,303,15,-0.0673828125,0.7333984375,-0.1357421875,-15.0146484375,44.73876953125,-106.26220703125,-43.91276601847071,99.76761027935525,14.544003401507617,1741601412.9017928
138,1,1,3,318,15,-0.00341796875,0.6357421875,-0.234375,24.47509765625,113.1591796875,-36.19384765625,-45.409639763666604,116.23322147651005,16.04844986379556,1741601412.9089024
139,1,1,3,333,15,0.8154296875,0.54052734375,0.05908203125,23.62060546875,190.673828125,17.39501953125,-33.434649802099464,110.2457264957265,10.030664014643778,1741601412.9153702
140,1,1,3,348,15,0.68798828125,0.26171875,-0.04296875,28.076171875,231.4453125,79.28466796875,-30.44090231170768,120.72384271209773,-5.013800608235684,1741601412.9236286
141,1,1,3,363,15,0.2099609375,0.1865234375,-0.0009765625,30.517578125,214.4775390625,119.2626953125,-45.409639763666604,111.74260024092237,-11.03158645738747,1741601412.9307678
142,1,1,3,378,15,0.0478515625,0.3623046875,-0.0830078125,38.39111328125,203.7353515625,165.58837890625,-63.37212470601732,126.7113376928813,-38.1116227785705,1741601412.93717
143,1,1,3,393,15,0.15185546875,0.54736328125,-0.01318359375,34.5458984375,191.5283203125,210.14404296875,-66.36587219640911,137.18945390925256,-59.17387325060175,1741601412.943591
144,1,1,3,408,15,0.13818359375,0.61181640625,0.09912109375,18.12744140625,164.1845703125,250.67138671875,-88.81897837434751,144.67382263523203,-65.19165909975354,1741601412.9507344
145,1,1,3,423,15,0.26708984375,0.78662109375,0.07568359375,10.31494140625,138.85498046875,294.25048828125,-108.2783370618941,135.69258016405666,-68.20055202432943,1741601412.9791143
146,1,1,3,438,15,0.37109375,0.8330078125,-0.03369140625,6.16455078125,121.64306640625,324.64599609375,-133.72519073022428,165.63005506797452,-86.25390957178477,1741601412.985573
147,1,1,3,453,15,0.2197265625,0.95556640625,-0.0009765625,7.080078125,112.6708984375,350.7080078125,-162.16579188894625,152.1581913612115,-96.7850348078004,1741601412.9926157
148,1,1,3,468,15,0.11279296875,1.1181640625,0.02783203125,9.27734375,110.107421875,367.431640625,-199.58763551884357,138.68632765444846,-105.81171358152808,1741601412.9989922
149,1,1,3,483,15,0.10009765625,1.35791015625,-0.01708984375,12.20703125,104.55322265625,383.97216796875,-226.53136293236963,155.15193885160326,-123.86507112898344,1741601413.0053818
150,1,1,3,498,15,0.0673828125,1.6552734375,-0.06787109375,17.02880859375,101.1962890625,405.6396484375,-253.4750903458957,128.2082114380772,-105.81171358152808,1741601413.012299
151,1,1,3,513,15,-0.12255859375,2.12353515625,-0.23876953125,22.4609375,95.39794921875,415.4052734375,-274.43132277863816,117.73009522170595,-132.89174990271113,1741601413.018966
152,1,1,3,528,15,-0.46435546875,2.2412109375,-0.2783203125,10.498046875,80.13916015625,419.677734375,-322.3312826249068,87.79262031778809,-144.92732160101465,1741601413.031733
153,1,1,3,543,15,-0.6064453125,2.58203125,-0.404296875,21.30126953125,71.6552734375,412.90283203125,-332.809398841278,90.78636780817989,-144.92732160101465,1741601413.3726223
154,1,1,3,558,15,-0.88720703125,2.86572265625,-0.599609375,13.24462890625,82.33642578125,376.77001953125,-359.7531262548041,53.364524178282565,-146.43176806330263,1741601413.3807807
155,1,1,3,573,15,-0.955078125,2.1240234375,-0.45654296875,-0.3662109375,87.2802734375,325.25634765625,-361.24999999999994,29.41454425514828,-165.98957207304593,1741601413.3871772
156,1,1,3,588,15,-1.72900390625,1.8125,-0.52587890625,14.70947265625,75.86669921875,237.24365234375,-388.19372741352606,-8.007299374749035,-164.48512561075796,1741601413.4788377
157,1,1,3,603,15,-2.9775390625,1.50830078125,-0.61083984375,10.009765625,25.146484375,122.9248046875,-383.70310617793837,-15.491668100728502,-196.07850131880485,1741601413.4854705
158,1,1,3,618,15,-2.21826171875,1.1201171875,-0.34033203125,-0.48828125,-53.5888671875,16.66259765625,-400.1687173750932,-45.429143004646356,-187.0518225450772,1741601413.4919052
159,1,1,3,633,15,-1.52734375,1.2001953125,-0.326171875,3.11279296875,-48.7060546875,-98.20556640625,-407.6530861010727,-37.9447742786669,-187.0518225450772,1741601413.4988875
160,1,1,3,648,15,-1.47021484375,1.2861328125,-0.392578125,15.869140625,6.16455078125,-188.720703125,-398.67184362989735,-21.479163081512073,-202.09628716795666,1741601413.5056322
161,1,1,3,663,15,0.427734375,1.8798828125,-0.26220703125,26.79443359375,69.3359375,-219.970703125,-382.20623243274247,-9.50417311994493,-190.06071546965308,1741601413.5122118
162,1,1,3,678,15,3.88916015625,1.36669921875,0.86376953125,-9.3994140625,53.77197265625,-163.0859375,-374.72186370676303,0.9739430964263179,-200.5918407056687,1741601413.5192678
163,1,1,3,693,15,0.826171875,1.04345703125,0.57421875,15.9912109375,141.29638671875,-84.16748046875,-364.2437474903918,-16.988541845924395,-200.5918407056687,1741601413.525729
164,1,1,3,708,15,-1.5361328125,1.0810546875,-1.88525390625,85.14404296875,176.69677734375,-168.02978515625,-364.2437474903918,0.9739430964263179,-214.13185886626022,1741601413.533527
165,1,1,3,723,15,-2.37255859375,2.6337890625,-1.880859375,230.77392578125,115.72265625,-210.38818359375,-356.7593787644123,8.458311822405784,-218.64519825312405,1741601413.5404496
166,1,1,3,738,15,-1.57275390625,3.76025390625,3.80126953125,-139.83154296875,-163.39111328125,-194.091796875,-350.77188378362877,8.458311822405784,-221.6540911776999,1741601413.5468488
167,1,1,3,753,15,0.240234375,-0.26708984375,-1.52978515625,60.791015625,-197.08251953125,-108.642578125,-353.7656312740205,-2.019804393965471,-242.7163416497312,1741601413.5532594
168,1,1,3,768,15,0.88330078125,-0.18994140625,-0.197265625,35.82763671875,-122.6806640625,-133.6669921875,-344.78438880284517,14.445806803189347,-212.62741240397224,1741601413.5602252
169,1,1,3,783,15,-0.02001953125,1.0322265625,-0.8583984375,81.11572265625,2.44140625,-63.96484375,-323.82815637010265,48.87390294269489,-215.63630532854816,1741601413.5667882
170,1,1,3,798,15,-0.1572265625,1.37646484375,-0.10986328125,33.38623046875,-32.16552734375,-61.1572265625,-310.3562926633397,38.395786726323635,-220.149644715412,1741601413.5732472
171,1,1,3,813,15,-0.02490234375,1.3779296875,-0.33544921875,21.484375,-60.24169921875,-36.80419921875,-322.3312826249068,39.892660471519534,-224.66298410227583,1741601413.5812855
172,1,1,3,828,15,0.4375,0.966796875,-0.34228515625,7.99560546875,-42.96875,-42.3583984375,-298.3813027017725,53.364524178282565,-215.63630532854816,1741601413.5877051
173,1,1,3,843,15,0.18505859375,0.8681640625,-0.388671875,9.3994140625,-5.4931640625,-49.6826171875,-304.368797682556,44.38328170710721,-214.13185886626022,1741601413.5941377
174,1,1,3,858,15,-0.0078125,1.0771484375,-0.30615234375,5.7373046875,-6.53076171875,-36.4990234375,-298.3813027017725,63.84264039465382,-220.149644715412,1741601414.0691113
175,1,1,3,873,15,0.03857421875,1.05419921875,-0.3330078125,-2.3193359375,-26.2451171875,-24.4140625,-290.89693397579305,54.86139792347845,-203.60073363024458,1741601414.2231746
176,1,1,3,888,15,0.068359375,0.91357421875,-0.37841796875,-11.04736328125,-49.4384765625,-20.5078125,-290.89693397579305,54.86139792347845,-211.12296594168433,1741601414.229631
177,1,1,3,903,15,0.1904296875,0.8828125,-0.42626953125,-18.73779296875,-68.359375,-23.62060546875,-290.89693397579305,51.86765043308668,-193.06960839422894,1741601414.2762053
178,1,1,3,918,15,0.34423828125,0.82861328125,-0.40185546875,-18.73779296875,-58.53271484375,-24.71923828125,-305.8656714277519,84.79887282739631,-205.10518009253252,1741601414.282413
179,1,1,3,933,15,0.31640625,0.89013671875,-0.34228515625,-16.66259765625,-35.33935546875,-33.63037109375,-286.40631274020535,62.345766649457914,-197.58294778109277,1741601414.2899792
180,1,1,3,948,15,0.119140625,0.9326171875,-0.2138671875,-20.93505859375,-42.3583984375,-30.76171875,-307.3625451729478,65.33951413984971,-200.5918407056687,1741601414.2968924
181,1,1,3,963,15,0.29931640625,0.876953125,-0.31982421875,-10.43701171875,-6.2255859375,-47.18017578125,-301.3750501921643,72.82388286582916,-184.04292962050127,1741601414.3033547
182,1,1,3,978,15,0.02392578125,0.8818359375,-0.33349609375,-4.638671875,-10.3759765625,-46.9970703125,-287.90318648540125,84.79887282739631,-199.08739424338074,1741601414.3151643
183,1,1,3,993,15,0.23486328125,0.943359375,-0.29052734375,-5.859375,-21.54541015625,-54.01611328125,-296.8844289565766,98.27073653415934,-193.06960839422894,1741601414.3220816
184,1,1,4,8,15,0.17529296875,0.9716796875,-0.21826171875,-6.77490234375,-18.85986328125,-62.56103515625,-298.3813027017725,84.79887282739631,-199.08739424338074,1741601414.3285196
185,1,1,4,23,15,0.0791015625,1.0498046875,-0.15087890625,-6.103515625,-20.99609375,-69.51904296875,-266.9469540526587,84.79887282739631,-181.03403669592538,1741601414.3354456
186,1,1,4,38,15,0.05615234375,1.0439453125,-0.06591796875,-12.75634765625,-27.587890625,-76.416015625,-274.43132277863816,95.27698904376757,-175.0162508467736,1741601414.4064825
187,1,1,4,53,15,0.1171875,1.1455078125,-0.04052734375,-15.68603515625,-26.2451171875,-84.47265625,-275.92819652383406,98.27073653415934,-184.04292962050127,1741601414.412958
188,1,1,4,68,15,0.095703125,1.1533203125,-0.11962890625,-13.85498046875,-28.3203125,-90.9423828125,-278.92194401422586,93.78011529857167,-184.04292962050127,1741601414.4202626
189,1,1,4,83,15,0.2265625,1.0927734375,-0.22607421875,-15.0146484375,-36.865234375,-104.8583984375,-254.9719640910916,93.78011529857167,-184.04292962050127,1741601414.4267743
190,1,1,4,98,15,0.2197265625,1.169921875,-0.16845703125,-10.1318359375,-37.841796875,-119.68994140625,-250.48134285550393,98.27073653415934,-179.52959023363744,1741601414.4334939
191,1,1,4,113,15,0.0986328125,1.2705078125,-0.15380859375,-10.68115234375,-34.36279296875,-130.92041015625,-257.9657115814834,104.25823151494292,-176.52069730906155,1741601414.441135
192,1,1,4,128,15,0.05517578125,1.35107421875,-0.1083984375,-10.1318359375,-46.44775390625,-139.22119140625,-237.0094791487409,116.23322147651005,-168.9984649976218,1741601414.4583933
193,1,1,4,143,15,0.2314453125,1.451171875,-0.18701171875,-13.97705078125,-49.01123046875,-150.69580078125,-240.00322663913266,101.26448402455115,-176.52069730906155,1741601414.4703045
194,1,1,4,158,15,0.322265625,1.58056640625,-0.18896484375,-13.916015625,-38.2080078125,-164.12353515625,-237.0094791487409,126.7113376928813,-165.98957207304593,1741601414.476701
195,1,1,4,173,15,0.359375,1.72607421875,-0.26123046875,-15.0146484375,-30.45654296875,-179.50439453125,-216.05324671599837,104.25823151494292,-155.4584468370303,1741601414.483742
196,1,1,4,188,15,0.474609375,1.8603515625,-0.3837890625,-15.07568359375,-49.6826171875,-190.4296875,-217.5501204611943,117.73009522170595,-140.41398221415082,1741601414.4912865
197,1,1,4,203,15,0.6572265625,2.01220703125,-0.3935546875,-10.31494140625,-103.82080078125,-199.15771484375,-189.10951930247234,125.21446394768543,-143.42287513872674,1741601414.4977584
198,1,1,4,218,15,1.314453125,2.22119140625,-0.42919921875,-10.8642578125,-198.66943359375,-187.92724609375,-186.1157718120805,131.201958928469,-140.41398221415082,1741601414.504233
199,1,1,4,233,15,2.07568359375,1.794921875,-0.78955078125,-31.43310546875,-285.09521484375,-174.49951171875,-177.13452934090517,108.7488527505306,-128.37841051584726,1741601414.5106473
200,1,1,4,248,15,1.41357421875,1.61328125,-0.6982421875,-20.99609375,-250.06103515625,-161.19384765625,-172.64390810531748,126.7113376928813,-114.83839235525575,1741601414.5478008
201,1,1,4,263,15,0.310546875,2.1533203125,-0.53369140625,-50.78125,-145.8740234375,-223.69384765625,-142.70643320139962,128.2082114380772,-95.28058834551246,1741601414.5542626
202,1,1,4,278,15,-0.17236328125,2.322265625,-0.70263671875,-63.1103515625,-104.8583984375,-197.32666015625,-141.20955945620375,122.22071645729363,-80.236123722633,1741601414.5611484
203,1,1,4,293,15,0.1865234375,1.5263671875,-0.64697265625,-31.31103515625,1.3427734375,-136.5966796875,-121.75020076865715,120.72384271209773,-74.2183378734812,1741601414.5840712
204,1,1,4,308,15,-0.12451171875,0.67138671875,-0.43701171875,-39.55078125,-25.32958984375,-152.52685546875,-111.27208455228589,117.73009522170595,-60.678319712889696,1741601414.5916622
205,1,1,4,323,15,-0.3642578125,0.3330078125,-0.169921875,-26.3671875,-18.798828125,-93.1396484375,-84.32835713875981,98.27073653415934,-69.70499848661737,1741601414.5981932
206,1,1,4,338,15,-0.11328125,0.2236328125,-0.69970703125,-18.61572265625,-24.4140625,12.87841796875,-88.81897837434751,101.26448402455115,-62.18276617517764,1741601414.6538956
207,1,1,4,353,15,1.09033203125,-0.2529296875,0.16796875,-25.7568359375,-51.08642578125,102.23388671875,-85.82523088395571,107.2519790053347,-60.678319712889696,1741601414.6604216
208,1,1,4,368,15,1.0615234375,-0.41162109375,-0.0625,-15.869140625,26.3671875,157.28759765625,-96.30334710032696,113.23947398611827,-68.20055202432943,1741601414.6674488
209,1,1,4,383,15,0.59423828125,-0.07373046875,0.2265625,32.53173828125,86.3037109375,215.02685546875,-84.32835713875981,93.78011529857167,-65.19165909975354,1741601414.6739137
210,1,1,4,398,15,0.27978515625,0.37841796875,0.0634765625,40.83251953125,119.0185546875,241.8212890625,-114.26583204267767,99.76761027935525,-74.2183378734812,1741601414.680338
211,1,1,4,413,15,0.0068359375,0.45361328125,-0.0107421875,43.15185546875,115.53955078125,267.7001953125,-118.75645327826535,92.28324155337577,-74.2183378734812,1741601414.6873496
212,1,1,4,428,15,0.005859375,0.53759765625,-0.08740234375,34.24072265625,91.064453125,285.33935546875,-139.71268571100785,117.73009522170595,-98.28948127008834,1741601414.694726
213,1,1,4,443,15,0.498046875,0.57177734375,0.00244140625,34.11865234375,97.65625,333.19091796875,-172.64390810531748,111.74260024092237,-107.31616004381601,1741601414.701188
214,1,1,4,458,15,0.61669921875,0.7890625,0.0,43.212890625,138.36669921875,381.4697265625,-181.62515057649284,117.73009522170595,-108.82060650610397,1741601414.7084317
215,1,1,4,473,15,0.31982421875,1.17041015625,0.013671875,49.98779296875,175.72021484375,398.37646484375,-208.56887799001893,119.22696896690185,-128.37841051584726,1741601414.7150629
216,1,1,4,488,15,0.15869140625,1.39599609375,-0.0263671875,41.80908203125,179.0771484375,408.14208984375,-220.54386795158607,113.23947398611827,-132.89174990271113,1741601414.7272222
217,1,1,4,503,15,0.12060546875,1.68505859375,-0.14599609375,52.67333984375,180.17578125,427.001953125,-231.02198416795733,107.2519790053347,-143.42287513872674,1741601414.7337062
218,1,1,4,518,15,0.087890625,2.5185546875,-0.41259765625,76.171875,193.84765625,438.96484375,-262.4563328170711,90.78636780817989,-149.44066098787852,1741601414.740148
219,1,1,4,533,15,-0.58740234375,2.92138671875,-0.58984375,28.564453125,180.2978515625,436.09619140625,-304.368797682556,83.30199908220041,-173.51180438448566,1741601414.7475543
220,1,1,4,548,15,-1.24853515625,2.765625,-0.6181640625,8.72802734375,105.28564453125,430.11474609375,-320.8344088797109,74.32075661102506,-178.0251437713495,1741601414.7795749
221,1,1,4,563,15,-1.3115234375,2.65234375,-0.65576171875,-4.21142578125,19.775390625,372.37548828125,-353.7656312740205,39.892660471519534,-197.58294778109277,1741601414.7879293
222,1,1,4,578,15,-1.3681640625,1.798828125,-0.47509765625,-3.5400390625,6.53076171875,280.1513671875,-374.72186370676303,15.94268054838525,-203.60073363024458,1741601414.796609
223,1,1,4,593,15,-1.97412109375,1.89013671875,-0.69140625,21.42333984375,30.33447265625,189.39208984375,-388.19372741352606,-11.001046865140825,-196.07850131880485,1741601414.8048024
224,1,1,4,608,15,-2.89501953125,1.30712890625,-0.34765625,6.28662109375,5.9814453125,94.3603515625,-388.19372741352606,-43.932269259450464,-202.09628716795666,1741601414.8130841
225,1,1,4,623,15,-1.857421875,1.310546875,-0.564453125,20.5078125,-25.08544921875,-66.89453125,-389.6906011587219,-52.91351173062582,-197.58294778109277,1741601414.8212113
226,1,1,4,638,15,-1.00146484375,2.029296875,-0.337890625,24.35302734375,-6.53076171875,-183.837890625,-383.70310617793837,-60.397880456605286,-202.09628716795666,1741601414.835706
227,1,1,4,653,15,0.5322265625,1.708984375,0.439453125,-23.92578125,28.74755859375,-191.5283203125,-382.20623243274247,-34.95102678827511,-214.13185886626022,1741601414.8446012
228,1,1,4,668,15,2.9130859375,1.43212890625,1.1416015625,-26.91650390625,-73.486328125,-168.39599609375,-377.71561119715483,-28.963531807491538,-199.08739424338074,1741601414.9014359
229,1,1,4,683,15,0.59326171875,1.14990234375,0.55712890625,1.953125,26.611328125,-63.1103515625,-379.2124849423507,-16.988541845924395,-200.5918407056687,1741601414.9084253
230,1,1,4,698,15,-0.9912109375,1.32568359375,-1.14404296875,64.63623046875,105.3466796875,-223.57177734375,-370.23124247117534,-18.48541559112029,-209.61851947939635,1741601414.9150155
231,1,1,4,713,15,-0.99560546875,1.607421875,-2.044921875,112.79296875,128.90625,-210.3271484375,-356.7593787644123,-9.50417311994493,-218.64519825312405,1741601414.921936
232,1,1,4,728,15,-0.34619140625,2.537109375,0.2705078125,162.41455078125,-29.78515625,-177.24609375,-352.2687575288246,-8.007299374749035,-230.68076995142764,1741601414.9290795
233,1,1,4,743,15,-1.166015625,0.62548828125,0.52685546875,55.11474609375,7.8125,-176.94091796875,-329.81565135088624,0.9739430964263179,-221.6540911776999,1741601414.9355214
234,1,1,4,758,15,0.4052734375,0.24072265625,-0.984375,16.90673828125,-141.41845703125,-112.73193359375,-320.8344088797109,6.961438077209882,-215.63630532854816,1741601414.9419415
235,1,1,4,773,15,0.06884765625,0.87548828125,-0.19775390625,16.2353515625,-35.5224609375,-136.5966796875,-331.31252509608214,20.433301783972926,-220.149644715412,1741601414.9501858
236,1,1,4,788,15,-0.08056640625,1.0869140625,-0.40869140625,7.50732421875,-50.4150390625,-88.0126953125,-313.3500401537314,30.911418000344167,-212.62741240397224,1741601414.9565878
237,1,1,4,803,15,0.0673828125,1.130859375,-0.20068359375,5.79833984375,-74.3408203125,-88.80615234375,-325.32503011529855,33.90516549073595,-208.1140730171084,1741601414.9630036
238,1,1,4,818,15,0.2822265625,1.1923828125,-0.3603515625,-2.25830078125,-59.5703125,-83.19091796875,-317.8406613893191,44.38328170710721,-203.60073363024458,1741601414.9977713
239,1,1,4,833,15,0.30078125,0.89794921875,-0.2919921875,4.69970703125,-5.4931640625,-81.54296875,-313.3500401537314,45.8801554523031,-212.62741240397224,1741601415.0043633
240,1,1,4,848,15,-0.04931640625,0.93408203125,-0.26611328125,7.26318359375,22.52197265625,-77.1484375,-301.3750501921643,51.86765043308668,-190.06071546965308,1741601415.011473
241,1,1,4,863,15,0.001953125,1.0537109375,-0.28955078125,6.103515625,19.53125,-63.5986328125,-295.3875552113807,53.364524178282565,-202.09628716795666,1741601415.017877
242,1,1,4,878,15,-0.01806640625,1.119140625,-0.2646484375,2.0751953125,11.474609375,-53.466796875,-290.89693397579305,54.86139792347845,-214.13185886626022,1741601415.0246067
243,1,1,4,893,15,-0.16748046875,0.951171875,-0.26513671875,-2.62451171875,-9.3994140625,-47.4853515625,-298.3813027017725,38.395786726323635,-220.149644715412,1741601415.0414152
244,1,1,4,908,15,-0.03857421875,0.9140625,-0.30224609375,-5.31005859375,-35.7666015625,-39.6728515625,-296.8844289565766,47.377029197499,-214.13185886626022,1741601415.0488844
245,1,1,4,923,15,0.08447265625,0.9638671875,-0.26513671875,-7.50732421875,-42.3583984375,-36.1328125,-277.42507026902996,56.358271668674355,-202.09628716795666,1741601415.0564
246,1,1,4,938,15,0.033203125,1.01953125,-0.18505859375,-7.26318359375,-36.62109375,-35.82763671875,-292.39380772098895,66.83638788504561,-196.07850131880485,1741601415.0629008
247,1,1,4,953,15,0.06640625,0.98046875,-0.1806640625,-5.18798828125,-28.564453125,-36.68212890625,-278.92194401422586,62.345766649457914,-190.06071546965308,1741601415.069511
248,1,1,4,968,15,0.12646484375,1.00634765625,-0.22900390625,-3.90625,-15.7470703125,-40.83251953125,-281.9156915046177,53.364524178282565,-188.5562690073651,1741601415.0766897
249,1,1,4,983,15,0.03857421875,1.00830078125,-0.28857421875,-2.01416015625,-4.69970703125,-42.90771484375,-272.9344490334423,83.30199908220041,-197.58294778109277,1741601415.0831594
250,1,1,4,998,15,-0.021484375,1.0478515625,-0.2939453125,-2.99072265625,-18.73779296875,-44.7998046875,-284.90943899500945,63.84264039465382,-191.56516193194102,1741601415.0895963
251,1,1,5,13,15,0.01953125,1.0029296875,-0.2880859375,-5.18798828125,-44.7998046875,-46.08154296875,-274.43132277863816,66.83638788504561,-188.5562690073651,1741601415.0980024
252,1,1,5,28,15,0.099609375,0.9599609375,-0.2529296875,-6.04248046875,-52.24609375,-52.24609375,-274.43132277863816,74.32075661102506,-181.03403669592538,1741601415.104508
253,1,1,5,43,15,0.12109375,1.06689453125,-0.162109375,-3.23486328125,-44.921875,-60.72998046875,-265.4500803074629,80.30825159180864,-190.06071546965308,1741601415.3141916
254,1,1,5,58,15,0.08837890625,1.16015625,-0.16552734375,-4.7607421875,-44.86083984375,-69.51904296875,-248.98446911030803,81.80512533700454,-185.5473760827892,1741601415.3218384
255,1,1,5,73,15,0.1171875,1.14697265625,-0.25244140625,-6.16455078125,-47.7294921875,-80.4443359375,-257.9657115814834,83.30199908220041,-184.04292962050127,1741601415.3282552
256,1,1,5,88,15,0.1953125,1.2626953125,-0.1484375,-9.3994140625,-39.1845703125,-92.8955078125,-262.4563328170711,90.78636780817989,-187.0518225450772,1741601415.3346772
257,1,1,5,103,15,0.14892578125,1.2451171875,-0.05712890625,-8.056640625,-36.19384765625,-107.48291015625,-253.4750903458957,95.27698904376757,-178.0251437713495,1741601415.3418944
258,1,1,5,118,15,0.22998046875,1.203125,-0.07421875,-9.70458984375,-27.03857421875,-126.708984375,-244.49384787472036,80.30825159180864,-168.9984649976218,1741601415.3497112
259,1,1,5,133,15,0.23388671875,1.3662109375,-0.18798828125,-6.9580078125,-13.00048828125,-145.44677734375,-229.5251104227614,101.26448402455115,-168.9984649976218,1741601415.3561344
260,1,1,5,148,15,0.21337890625,1.5791015625,-0.3125,-8.23974609375,-16.17431640625,-161.1328125,-231.02198416795733,107.2519790053347,-178.0251437713495,1741601415.3633037
261,1,1,5,163,15,0.34228515625,1.7431640625,-0.4951171875,-11.29150390625,-31.55517578125,-172.36328125,-219.0469942063902,111.74260024092237,-165.98957207304593,1741601415.3697476
262,1,1,5,178,15,0.49609375,1.7939453125,-0.58935546875,-7.87353515625,-56.5185546875,-184.6923828125,-199.58763551884357,89.28949406298399,-164.48512561075796,1741601415.376149
263,1,1,5,193,15,0.77734375,1.9140625,-0.61572265625,0.0,-100.64697265625,-195.00732421875,-195.0970142832559,104.25823151494292,-168.9984649976218,1741601415.393285
264,1,1,5,208,15,1.3330078125,2.08056640625,-0.6650390625,3.35693359375,-171.81396484375,-196.10595703125,-187.6126455572764,101.26448402455115,-162.98067914847005,1741601415.401396
265,1,1,5,223,15,1.69189453125,1.95947265625,-0.59814453125,-5.0048828125,-257.568359375,-183.349609375,-169.6501606149257,104.25823151494292,-141.9184286764388,1741601415.4078083
266,1,1,5,238,15,0.91796875,1.83056640625,-0.572265625,-23.49853515625,-307.6171875,-160.2783203125,-157.67517065335855,113.23947398611827,-137.40508928957496,1741601415.4142408
267,1,1,5,253,15,0.26318359375,1.95947265625,-0.3564453125,-77.94189453125,-270.99609375,-200.01220703125,-141.20955945620375,116.23322147651005,-114.83839235525575,1741601415.5510905
268,1,1,5,268,15,0.07275390625,1.75537109375,-0.38623046875,-96.0693359375,-204.833984375,-187.19482421875,-123.24707451385304,122.22071645729363,-107.31616004381601,1741601415.5574899
269,1,1,5,283,15,0.35400390625,1.20166015625,-0.5361328125,-31.18896484375,-80.99365234375,-118.65234375,-105.28458957150232,101.26448402455115,-69.70499848661737,1741601415.6268713
270,1,1,5,298,15,-0.2138671875,0.7470703125,-0.48583984375,-24.23095703125,-38.87939453125,-145.44677734375,-108.2783370618941,107.2519790053347,-63.68721263746558,1741601415.6387177
271,1,1,5,313,15,-0.5751953125,0.4169921875,-0.33447265625,-3.41796875,4.0283203125,-85.63232421875,-84.32835713875981,111.74260024092237,-62.18276617517764,1741601415.6454458
272,1,1,5,328,15,-0.50537109375,0.49169921875,-0.25146484375,-13.427734375,-33.8134765625,-0.91552734375,-79.83773590317215,99.76761027935525,-68.20055202432943,1741601415.652181
273,1,1,5,343,15,0.5693359375,-0.07421875,0.134765625,-19.6533203125,-28.564453125,51.20849609375,-76.84398841278035,101.26448402455115,-59.17387325060175,1741601415.658607
274,1,1,5,358,15,1.2607421875,-0.22998046875,-0.14697265625,-4.5166015625,79.58984375,111.51123046875,-88.81897837434751,104.25823151494292,-51.651640939162014,1741601415.6651566
275,1,1,5,373,15,0.60498046875,0.01318359375,0.0615234375,43.8232421875,185.05859375,164.9169921875,-81.33460964836804,98.27073653415934,-51.651640939162014,1741601415.671602
276,1,1,5,388,15,0.02880859375,0.267578125,-0.0146484375,48.40087890625,206.787109375,181.884765625,-117.25957953306947,111.74260024092237,-72.71389141119326,1741601415.6779919
277,1,1,5,403,15,-0.1005859375,0.37353515625,-0.11083984375,57.9833984375,200.98876953125,200.98876953125,-105.28458957150232,122.22071645729363,-90.76724895864861,1741601415.6844788
278,1,1,5,418,15,-0.16162109375,0.46484375,-0.009765625,42.3583984375,135.6201171875,240.53955078125,-136.71893822061608,113.23947398611827,-105.81171358152808,1741601415.6910899
279,1,1,5,433,15,0.1259765625,0.4228515625,0.08447265625,36.376953125,106.99462890625,281.18896484375,-133.72519073022428,119.22696896690185,-114.83839235525575,1741601415.7031097
280,1,1,5,448,15,0.38818359375,0.5908203125,0.083984375,35.46142578125,119.5068359375,331.9091796875,-162.16579188894625,116.23322147651005,-120.85617820440754,1741601415.709697
281,1,1,5,463,15,0.27392578125,0.80615234375,0.0703125,37.53662109375,148.193359375,358.58154296875,-178.63140308610107,113.23947398611827,-132.89174990271113,1741601415.7161307
282,1,1,5,478,15,0.12548828125,1.01611328125,0.060546875,26.9775390625,149.35302734375,372.98583984375,-207.07200424482303,89.28949406298399,-122.36062466669549,1741601415.7226553
283,1,1,5,493,15,0.0869140625,1.2958984375,-0.00244140625,25.87890625,138.5498046875,396.54541015625,-225.03448918717373,92.28324155337577,-140.41398221415082,1741601415.729159
284,1,1,5,508,15,0.0361328125,1.66552734375,-0.07763671875,35.2783203125,132.14111328125,416.748046875,-256.4688378362875,56.358271668674355,-156.96289329931824,1741601415.7356448
285,1,1,5,523,15,-0.048828125,2.1484375,-0.21044921875,38.51318359375,134.033203125,422.66845703125,-284.90943899500945,53.364524178282565,-167.49401853533388,1741601415.74781
286,1,1,5,538,15,-0.34716796875,2.42822265625,-0.24853515625,22.64404296875,116.2109375,413.57421875,-292.39380772098895,20.433301783972926,-181.03403669592538,1741601415.7597797
287,1,1,5,553,15,-0.708984375,2.72900390625,-0.53076171875,21.78955078125,77.0263671875,389.5263671875,-307.3625451729478,5.464564332013994,-168.9984649976218,1741601415.7662523
288,1,1,5,568,15,-0.99609375,2.583984375,-0.642578125,-9.27734375,19.8974609375,362.60986328125,-325.32503011529855,-19.982289336316178,-184.04292962050127,1741601415.7727935
289,1,1,5,583,15,-1.24658203125,1.681640625,-0.33984375,-25.32958984375,-28.50341796875,298.9501953125,-332.809398841278,-34.95102678827511,-197.58294778109277,1741601415.7792194
290,1,1,5,598,15,-1.03564453125,1.6875,-0.42236328125,10.986328125,-13.36669921875,229.248046875,-341.7906413124534,-43.932269259450464,-170.50291145990977,1741601415.7856555
291,1,1,5,613,15,-1.93017578125,1.60693359375,-0.42041015625,-2.13623046875,-28.564453125,134.70458984375,-343.2875150576493,-58.901006711409394,-193.06960839422894,1741601415.7922122
292,1,1,5,628,15,-2.2763671875,1.1728515625,-0.4111328125,-7.14111328125,-71.35009765625,62.1337890625,-335.80314633166984,-58.901006711409394,-190.06071546965308,1741601415.7986631
293,1,1,5,643,15,-1.00634765625,1.6337890625,-0.5322265625,11.65771484375,-103.515625,-42.1142578125,-340.29376756725753,-64.88850169219297,-176.52069730906155,1741601416.0115478
294,1,1,5,658,15,-1.07177734375,1.3837890625,-0.4658203125,-27.099609375,-81.97021484375,-120.849609375,-352.2687575288246,-57.4041329662135,-181.03403669592538,1741601416.018002
295,1,1,5,673,15,1.68994140625,1.5576171875,0.30029296875,-36.92626953125,-30.3955078125,-158.63037109375,-344.78438880284517,-51.41663798542993,-170.50291145990977,1741601416.0248466
296,1,1,5,688,15,2.32861328125,1.45263671875,0.63623046875,-39.794921875,-182.67822265625,-113.58642578125,-323.82815637010265,-43.932269259450464,-164.48512561075796,1741601416.031941
297,1,1,5,703,15,0.65673828125,1.13720703125,-0.01416015625,19.04296875,40.22216796875,-98.14453125,-331.31252509608214,-43.932269259450464,-167.49401853533388,1741601416.0384073
298,1,1,5,718,15,-0.6552734375,1.18408203125,-1.61328125,53.8330078125,208.3740234375,-235.107421875,-323.82815637010265,-28.963531807491538,-178.0251437713495,1741601416.0448413
299,1,1,5,733,15,-0.98046875,1.58935546875,-1.1357421875,115.05126953125,191.5283203125,-199.76806640625,-325.32503011529855,-27.466658062295643,-179.52959023363744,1741601416.0814857
300,1,1,5,748,15,-1.14111328125,2.85986328125,2.310546875,-39.794921875,115.05126953125,-315.7958984375,-304.368797682556,-12.497920610336719,-190.06071546965308,1741601416.0878878
301,1,1,5,763,15,0.15673828125,0.78515625,-1.0771484375,13.97705078125,-8.544921875,-133.48388671875,-311.85316640853557,-19.982289336316178,-200.5918407056687,1741601416.1445205
302,1,1,5,778,15,0.29833984375,0.06640625,-0.408203125,17.27294921875,-11.29150390625,-182.06787109375,-287.90318648540125,-11.001046865140825,-191.56516193194102,1741601416.1509855
303,1,1,5,793,15,-0.47900390625,0.7119140625,-0.35107421875,35.0341796875,18.37158203125,-117.85888671875,-278.92194401422586,-6.510425629553148,-197.58294778109277,1741601416.1581333
304,1,1,5,808,15,-0.0732421875,1.22021484375,-0.02978515625,25.81787109375,-35.33935546875,-100.28076171875,-275.92819652383406,15.94268054838525,-176.52069730906155,1741601416.1666155
305,1,1,5,823,15,0.00537109375,1.21435546875,-0.197265625,12.02392578125,-56.5185546875,-101.13525390625,-269.9407015430505,-0.5229306487695766,-185.5473760827892,1741601416.1730704
306,1,1,5,838,15,0.2490234375,1.07421875,-0.1201171875,21.91162109375,-25.2685546875,-83.31298828125,-283.4125652498136,15.94268054838525,-197.58294778109277,1741601416.1802273
307,1,1,5,853,15,0.06640625,0.9208984375,-0.24951171875,24.0478515625,-11.71875,-81.298828125,-274.43132277863816,17.439554293581136,-178.0251437713495,1741601416.1866355
308,1,1,5,868,15,0.08349609375,0.865234375,-0.30908203125,26.06201171875,-0.8544921875,-77.392578125,-263.953206562267,14.445806803189347,-188.5562690073651,1741601416.193074
309,1,1,5,883,15,-0.01513671875,1.1103515625,-0.333984375,25.93994140625,0.42724609375,-66.40625,-248.98446911030803,14.445806803189347,-181.03403669592538,1741601416.2001977
310,1,1,5,898,15,-0.2783203125,1.18603515625,-0.2880859375,19.95849609375,-32.2265625,-47.66845703125,-250.48134285550393,8.458311822405784,-190.06071546965308,1741601416.2066102
311,1,1,5,913,15,-0.0947265625,0.8583984375,-0.34423828125,7.2021484375,-72.6318359375,-42.8466796875,-253.4750903458957,14.445806803189347,-185.5473760827892,1741601416.2370646
312,1,1,5,928,15,0.12451171875,0.92822265625,-0.34765625,8.30078125,-77.08740234375,-36.7431640625,-242.99697412952446,30.911418000344167,-181.03403669592538,1741601416.2436042
313,1,1,5,943,15,0.09228515625,1.0322265625,-0.34326171875,8.85009765625,-58.4716796875,-35.5224609375,-245.99072161991626,24.923923019560604,-196.07850131880485,1741601416.2500153
314,1,1,5,958,15,0.03515625,0.95703125,-0.36474609375,4.7607421875,-48.33984375,-38.14697265625,-242.99697412952446,20.433301783972926,-167.49401853533388,1741601416.2571292
315,1,1,5,973,15,0.01025390625,0.94091796875,-0.42578125,3.11279296875,-46.7529296875,-35.15625,-257.9657115814834,26.420796764756492,-190.06071546965308,1741601416.263573
316,1,1,5,988,15,0.00439453125,0.98193359375,-0.4208984375,0.1220703125,-48.33984375,-33.3251953125,-247.48759536511216,47.377029197499,-173.51180438448566,1741601416.2772162
317,1,1,6,3,15,-0.0634765625,1.009765625,-0.404296875,-3.0517578125,-57.7392578125,-30.76171875,-234.0157316583491,44.38328170710721,-173.51180438448566,1741601416.2838473
318,1,1,6,18,15,-0.06689453125,0.9921875,-0.3623046875,-6.4697265625,-70.1904296875,-28.38134765625,-244.49384787472036,51.86765043308668,-158.4673397616062,1741601416.2903075
319,1,1,6,33,15,-0.0576171875,0.99365234375,-0.3154296875,-7.99560546875,-81.0546875,-26.79443359375,-238.50635289393676,42.886407961911324,-170.50291145990977,1741601416.299118
320,1,1,6,48,15,-0.107421875,1.01953125,-0.2470703125,-7.01904296875,-87.646484375,-24.4140625,-242.99697412952446,56.358271668674355,-164.48512561075796,1741601416.3071527
321,1,1,6,63,15,-0.15087890625,1.02978515625,-0.24658203125,-6.4697265625,-96.13037109375,-23.5595703125,-244.49384787472036,51.86765043308668,-165.98957207304593,1741601416.3151624
322,1,1,6,78,15,-0.17724609375,1.0546875,-0.232421875,-6.7138671875,-109.375,-20.56884765625,-235.512605403545,60.84889290426203,-146.43176806330263,1741601416.936061
323,1,1,6,93,15,-0.1494140625,1.04833984375,-0.3076171875,-8.60595703125,-129.69970703125,-18.4326171875,-231.02198416795733,53.364524178282565,-146.43176806330263,1741601416.9427702
324,1,1,6,108,15,-0.08984375,1.00439453125,-0.39599609375,-14.83154296875,-144.22607421875,-17.822265625,-237.0094791487409,51.86765043308668,-138.9095357518629,1741601416.9546602
325,1,1,6,123,15,-0.029296875,0.95849609375,-0.48681640625,-19.8974609375,-149.5361328125,-18.4326171875,-235.512605403545,71.32700912063329,-137.40508928957496,1741601416.9611523
326,1,1,6,138,15,0.02294921875,0.9462890625,-0.5625,-25.57373046875,-149.7802734375,-21.54541015625,-229.5251104227614,83.30199908220041,-114.83839235525575,1741601416.9675448
327,1,1,6,153,15,0.01953125,0.9609375,-0.5732421875,-29.35791015625,-143.12744140625,-26.9775390625,-219.0469942063902,54.86139792347845,-123.86507112898344,1741601416.973987
328,1,1,6,168,15,0.0302734375,0.9716796875,-0.5849609375,-35.888671875,-136.53564453125,-32.65380859375,-220.54386795158607,60.84889290426203,-108.82060650610397,1741601416.9805071
329,1,1,6,183,15,-0.033203125,0.9541015625,-0.49365234375,-38.6962890625,-133.6669921875,-36.80419921875,-234.0157316583491,69.83013537543738,-117.84728527983165,1741601416.9870646
330,1,1,6,198,15,-0.18310546875,0.9423828125,-0.41650390625,-44.86083984375,-136.29150390625,-40.283203125,-217.5501204611943,63.84264039465382,-92.27169542093657,1741601416.993533
331,1,1,6,213,15,-0.26611328125,0.9443359375,-0.3515625,-52.42919921875,-144.04296875,-39.1845703125,-228.02823667756553,63.84264039465382,-87.75835603407272,1741601417.096454
332,1,1,6,228,15,-0.34326171875,0.89501953125,-0.40966796875,-58.04443359375,-149.84130859375,-36.4990234375,-214.5563729708025,74.32075661102506,-74.2183378734812,1741601417.1083226
333,1,1,6,243,15,-0.27294921875,0.85400390625,-0.51171875,-60.48583984375,-153.25927734375,-34.423828125,-228.02823667756553,71.32700912063329,-71.20944494890531,1741601417.1149707
334,1,1,6,258,15,-0.23193359375,0.9609375,-0.6943359375,-59.99755859375,-162.29248046875,-36.865234375,-220.54386795158607,78.81137784661274,-53.156087401449966,1741601417.1223826
335,1,1,6,273,15,-0.26904296875,1.052734375,-0.70361328125,-52.490234375,-181.396484375,-37.04833984375,-219.0469942063902,62.345766649457914,-51.651640939162014,1741601417.1287742
336,1,1,6,288,15,-0.3515625,1.1162109375,-1.0322265625,-41.9921875,-214.2333984375,-32.958984375,-210.0657517352148,71.32700912063329,-29.084944004842825,1741601417.1351776
337,1,1,6,303,15,-0.388671875,1.1572265625,-1.220703125,-28.6865234375,-271.42333984375,-25.32958984375,-198.09076177364767,75.81763035622096,-30.589390467130766,1741601417.1433575
338,1,1,6,318,15,-0.58935546875,1.02392578125,-1.599609375,-20.3857421875,-347.65625,-15.80810546875,-192.1032667928641,56.358271668674355,-12.536032919675415,1741601417.1500564
339,1,1,6,333,15,-0.17822265625,0.7939453125,-1.7724609375,-2.62451171875,-432.7392578125,-0.732421875,-201.08450926403944,62.345766649457914,-0.5004612213718453,1741601417.156444
340,1,1,6,348,15,0.24365234375,0.73876953125,-1.69970703125,10.009765625,-518.1884765625,11.90185546875,-196.59388802845177,53.364524178282565,34.10180741125092,1741601417.163465
341,1,1,6,363,15,0.27197265625,0.9375,-1.55419921875,23.86474609375,-538.0859375,16.9677734375,-199.58763551884357,35.40203923593186,52.15516495870627,1741601417.1699007
342,1,1,6,378,15,0.16748046875,1.1396484375,-1.1005859375,23.62060546875,-553.955078125,9.6435546875,-216.05324671599837,21.930175529168814,85.25298712904109,1741601417.1762695
343,1,1,6,393,15,0.26953125,1.20654296875,-0.9462890625,35.94970703125,-562.6220703125,16.05224609375,-207.07200424482303,-3.5166781391613586,97.28855882734466,1741601417.1832397
344,1,1,6,408,15,0.107421875,1.16650390625,-0.76416015625,52.18505859375,-519.47021484375,7.50732421875,-189.10951930247234,-18.48541559112029,113.83746991251206,1741601417.1908875
345,1,1,6,423,15,0.3662109375,0.98876953125,-0.63232421875,80.2001953125,-435.9130859375,-21.66748046875,-214.5563729708025,-54.41038547582172,134.8997203845433,1741601417.1978028
346,1,1,6,438,15,0.412109375,1.0205078125,-0.59326171875,119.93408203125,-342.71240234375,-45.7763671875,-219.0469942063902,-69.37912292778066,136.40416684683126,1741601417.220715
347,1,1,6,453,15,0.31103515625,0.98681640625,-0.470703125,146.05712890625,-260.8642578125,-59.9365234375,-217.5501204611943,-63.39162794699707,137.9086133091192,1741601417.22733
348,1,1,6,468,15,0.3447265625,1.07080078125,-0.26318359375,164.4287109375,-204.65087890625,-66.95556640625,-217.5501204611943,-99.3165978316985,142.42195269598304,1741601417.2818015
349,1,1,6,483,15,0.32861328125,1.19482421875,-0.154296875,172.9736328125,-166.56494140625,-71.8994140625,-214.5563729708025,-99.3165978316985,124.36859514852769,1741601417.2882848
350,1,1,6,498,15,0.27197265625,1.20458984375,-0.06298828125,171.69189453125,-154.47998046875,-70.00732421875,-238.50635289393676,-120.272830264441,137.9086133091192,1741601417.2956324
351,1,1,6,513,15,0.2333984375,1.1865234375,-0.09716796875,165.283203125,-154.052734375,-66.22314453125,-253.4750903458957,-120.272830264441,134.8997203845433,1741601417.3020926
352,1,1,6,528,15,0.2705078125,1.12841796875,-0.080078125,150.69580078125,-170.47119140625,-58.89892578125,-231.02198416795733,-114.28533528365743,107.81968406336027,1741601417.3240135
353,1,1,6,543,15,0.30517578125,1.10107421875,-0.10791015625,134.033203125,-197.265625,-49.01123046875,-247.48759536511216,-115.78220902885332,119.85525576166384,1741601417.330506
354,1,1,6,558,15,0.36767578125,1.07763671875,-0.16015625,116.5771484375,-227.35595703125,-34.36279296875,-242.99697412952446,-138.23531520679174,97.28855882734466,1741601417.3369052
355,1,1,6,573,15,0.41845703125,1.0322265625,-0.2109375,100.9521484375,-258.9111328125,-17.63916015625,-253.4750903458957,-135.2415677163999,103.30634467649644,1741601417.344474
356,1,1,6,588,15,0.533203125,0.9931640625,-0.26513671875,87.82958984375,-283.447265625,-1.8310546875,-244.49384787472036,-136.73844146159584,91.27077297819287,1741601417.3509781
357,1,1,6,603,15,0.71142578125,1.021484375,-0.30419921875,80.9326171875,-286.56005859375,8.6669921875,-229.5251104227614,-162.18529512992598,88.26188005361698,1741601417.3574922
358,1,1,6,618,15,0.78125,1.06103515625,-0.28125,74.8291015625,-273.681640625,15.31982421875,-247.48759536511216,-169.66966385590547,98.7930052896326,1741601417.3639672
359,1,1,6,633,15,0.8125,1.08642578125,-0.208984375,75.13427734375,-244.62890625,20.5078125,-250.48134285550393,-183.1415275626685,77.73075481760137,1741601417.3708873
360,1,1,6,648,15,0.78955078125,1.09033203125,-0.13525390625,80.74951171875,-210.205078125,25.7568359375,-254.9719640910916,-198.11026501462743,91.27077297819287,1741601417.3773003
361,1,1,6,663,15,0.732421875,1.1240234375,-0.04052734375,87.646484375,-178.40576171875,32.470703125,-245.99072161991626,-217.56962370217403,65.6951831192978,1741601417.383732
362,1,1,6,678,15,0.76220703125,1.150390625,0.025390625,89.66064453125,-149.0478515625,38.2080078125,-248.98446911030803,-207.0915074858028,62.68629019472189,1741601417.3955443
363,1,1,6,693,15,0.7392578125,1.13623046875,0.078125,87.5244140625,-110.7177734375,43.27392578125,-250.48134285550393,-216.07274995697813,67.19962958158573,1741601417.402032
364,1,1,6,708,15,0.4853515625,1.21923828125,0.14208984375,79.2236328125,-80.62744140625,51.08642578125,-250.48134285550393,-216.07274995697813,70.20852250616163,1741601417.4116528
365,1,1,6,723,15,0.2568359375,1.3115234375,0.2666015625,64.453125,-74.0966796875,57.31201171875,-247.48759536511216,-222.06024493776172,53.659611420994224,1741601417.4240386
366,1,1,6,738,15,0.21875,1.3330078125,0.287109375,46.69189453125,-83.67919921875,57.7392578125,-242.99697412952446,-213.07900246658636,62.68629019472189,1741601417.4305859
367,1,1,6,753,15,0.45947265625,1.32763671875,0.46533203125,29.35791015625,-92.4072265625,63.232421875,-247.48759536511216,-240.02272988011242,46.13737910955449,1741601417.436979
368,1,1,6,768,15,0.37890625,1.0947265625,0.4658203125,11.41357421875,-98.7548828125,67.7490234375,-238.50635289393676,-235.53210864452475,62.68629019472189,1741601417.443617
369,1,1,6,783,15,0.61279296875,0.98388671875,0.31787109375,5.43212890625,-87.0361328125,79.04052734375,-234.0157316583491,-229.54461366374116,46.13737910955449,1741601417.45016
370,1,1,6,798,15,0.822265625,1.28515625,0.4189453125,5.31005859375,-62.3779296875,83.49609375,-229.5251104227614,-234.03523489932883,64.19073665700984,1741601417.4565544
371,1,1,6,813,15,0.490234375,0.93603515625,0.53369140625,3.96728515625,-13.97705078125,86.85302734375,-220.54386795158607,-246.010224860896,55.16405788328216,1741601417.4629807
372,1,1,6,828,15,0.365234375,1.4150390625,0.26708984375,10.92529296875,33.3251953125,66.71142578125,-223.53761544197786,-254.99146733207135,46.13737910955449,1741601417.4694893
373,1,1,6,843,15,0.2861328125,1.296875,-0.08154296875,31.92138671875,98.32763671875,33.0810546875,-229.5251104227614,-244.5133511157001,56.668504345570106,1741601417.5300636
374,1,1,6,858,15,0.42431640625,1.060546875,-0.14794921875,36.07177734375,112.548828125,15.13671875,-235.512605403545,-249.00397235128779,62.68629019472189,1741601417.561234
375,1,1,6,873,15,0.14794921875,0.95703125,-0.34033203125,46.93603515625,103.515625,11.29150390625,-216.05324671599837,-254.99146733207135,50.65071849641833,1741601417.5676298
376,1,1,6,888,15,-0.23583984375,1.009765625,-0.39013671875,45.22705078125,83.0078125,9.82666015625,-240.00322663913266,-247.5070986060919,74.72186189302546,1741601417.5858712
377,1,1,6,903,15,-0.4521484375,1.05029296875,-0.31787109375,31.31103515625,31.31103515625,15.869140625,-235.512605403545,-253.49459358687545,62.68629019472189,1741601417.600359
378,1,1,6,918,15,-0.080078125,1.0029296875,-0.25732421875,21.97265625,-6.7138671875,24.4140625,-223.53761544197786,-234.03523489932883,56.668504345570106,1741601417.652998
379,1,1,6,933,15,0.1259765625,1.0869140625,-0.232421875,23.01025390625,-7.50732421875,24.7802734375,-245.99072161991626,-246.010224860896,58.17295080785806,1741601417.659463
380,1,1,6,948,15,0.1025390625,1.125,-0.24609375,20.3857421875,1.8310546875,21.484375,-207.07200424482303,-243.01647737050422,52.15516495870627,1741601417.6658797
381,1,1,6,963,15,0.11181640625,1.02783203125,-0.32080078125,19.83642578125,6.28662109375,18.24951171875,-238.50635289393676,-243.01647737050422,55.16405788328216,1741601417.6723933
382,1,1,6,978,15,0.13232421875,1.06494140625,-0.275390625,15.9912109375,7.99560546875,14.22119140625,-229.5251104227614,-257.98521482246315,50.65071849641833,1741601417.678813
383,1,1,6,993,15,0.06982421875,1.046875,-0.3232421875,11.04736328125,3.47900390625,12.14599609375,-220.54386795158607,-231.04148740893706,52.15516495870627,1741601417.685267
384,1,1,7,8,15,0.00732421875,1.00390625,-0.33642578125,6.16455078125,-0.48828125,11.3525390625,-234.0157316583491,-244.5133511157001,50.65071849641833,1741601417.6918218
385,1,1,7,23,15,0.0478515625,0.9697265625,-0.38916015625,-0.6103515625,-3.90625,9.6435546875,-223.53761544197786,-254.99146733207135,56.668504345570106,1741601417.6993
386,1,1,7,38,15,0.01318359375,0.9775390625,-0.3154296875,-1.64794921875,-5.18798828125,8.36181640625,-220.54386795158607,-249.00397235128779,52.15516495870627,1741601417.7058005
387,1,1,7,53,15,0.0458984375,0.97119140625,-0.25537109375,-5.18798828125,-7.4462890625,5.126953125,-229.5251104227614,-240.02272988011242,53.659611420994224,1741601417.7129798
388,1,1,7,68,15,-0.0205078125,0.9970703125,-0.20263671875,-5.43212890625,-10.07080078125,2.86865234375,-228.02823667756553,-253.49459358687545,52.15516495870627,1741601417.7194657
389,1,1,7,83,15,-0.01708984375,0.9892578125,-0.130859375,-6.89697265625,-15.7470703125,2.3193359375,-225.03448918717373,-256.4883410772673,41.624039722690654,1741601417.7259574
390,1,1,7,98,15,0.0224609375,0.9765625,-0.19189453125,-6.53076171875,-20.44677734375,1.03759765625,-235.512605403545,-238.52585613491652,55.16405788328216,1741601417.7417753
391,1,1,7,113,15,-0.00048828125,0.9697265625,-0.2041015625,-5.06591796875,-20.263671875,0.244140625,-208.56887799001893,-240.02272988011242,50.65071849641833,1741601417.750189
392,1,1,7,128,15,-0.02197265625,0.9931640625,-0.20068359375,-4.638671875,-22.216796875,-0.67138671875,-225.03448918717373,-253.49459358687545,55.16405788328216,1741601417.7573957
393,1,1,7,143,15,0.05615234375,0.9580078125,-0.1982421875,-5.92041015625,-21.91162109375,-2.99072265625,-219.0469942063902,-240.02272988011242,46.13737910955449,1741601417.763891
394,1,1,7,158,15,0.04052734375,0.9599609375,-0.21142578125,-5.31005859375,-22.03369140625,-5.4931640625,-234.0157316583491,-254.99146733207135,53.659611420994224,1741601417.7703753
395,1,1,7,173,15,0.04052734375,0.98095703125,-0.1845703125,-4.0283203125,-20.99609375,-9.6435546875,-231.02198416795733,-253.49459358687545,52.15516495870627,1741601417.7776127
396,1,1,7,188,15,0.02099609375,0.99853515625,-0.18212890625,-3.47900390625,-24.47509765625,-13.61083984375,-219.0469942063902,-247.5070986060919,50.65071849641833,1741601417.7842264
397,1,1,7,203,15,0.07763671875,0.97607421875,-0.23876953125,-5.37109375,-31.005859375,-17.333984375,-220.54386795158607,-246.010224860896,44.63293264726654,1741601417.7906995
398,1,1,7,218,15,0.09619140625,0.9853515625,-0.23681640625,-5.9814453125,-32.40966796875,-21.05712890625,-234.0157316583491,-262.47583605805085,50.65071849641833,1741601417.7991939
399,1,1,7,233,15,0.0947265625,0.99462890625,-0.2529296875,-7.38525390625,-32.3486328125,-26.3671875,-220.54386795158607,-260.97896231285495,41.624039722690654,1741601417.805676
400,1,1,7,248,15,0.0703125,1.0244140625,-0.23095703125,-11.41357421875,-34.85107421875,-31.25,-229.5251104227614,-254.99146733207135,53.659611420994224,1741601417.8303092
401,1,1,7,263,15,0.029296875,1.0615234375,-0.20849609375,-12.5732421875,-43.701171875,-35.7666015625,-223.53761544197786,-254.99146733207135,43.12848618497859,1741601417.842157
402,1,1,7,278,15,0.052734375,1.08984375,-0.2080078125,-13.7939453125,-51.57470703125,-40.34423828125,-225.03448918717373,-256.4883410772673,52.15516495870627,1741601417.8499794
403,1,1,7,293,15,0.00341796875,1.12353515625,-0.2529296875,-14.2822265625,-57.9833984375,-46.81396484375,-229.5251104227614,-244.5133511157001,43.12848618497859,1741601417.857115
404,1,1,7,308,15,-0.00634765625,1.1396484375,-0.2333984375,-17.39501953125,-61.8896484375,-53.955078125,-226.53136293236963,-251.99771984167958,50.65071849641833,1741601417.8635597
405,1,1,7,323,15,-0.0341796875,1.15576171875,-0.20654296875,-20.8740234375,-60.6689453125,-60.9130859375,-226.53136293236963,-254.99146733207135,35.60625387353886,1741601417.8700197
406,1,1,7,338,15,-0.107421875,1.17626953125,-0.2421875,-24.71923828125,-57.80029296875,-67.68798828125,-228.02823667756553,-249.00397235128779,62.68629019472189,1741601417.87713
407,1,1,7,353,15,-0.1474609375,1.2353515625,-0.23486328125,-28.38134765625,-56.82373046875,-72.57080078125,-234.0157316583491,-251.99771984167958,40.1195932604027,1741601417.8836336
408,1,1,7,368,15,-0.02783203125,1.19287109375,-0.208984375,-33.203125,-54.01611328125,-75.01220703125,-238.50635289393676,-260.97896231285495,38.61514679811476,1741601417.8900468
409,1,1,7,383,15,-0.01513671875,1.32763671875,-0.236328125,-34.912109375,-59.14306640625,-79.1015625,-240.00322663913266,-262.47583605805085,50.65071849641833,1741601417.898587
410,1,1,7,398,15,0.02490234375,1.3994140625,-0.115234375,-34.97314453125,-68.4814453125,-82.33642578125,-237.0094791487409,-257.98521482246315,29.58846802438708,1741601417.9052122
411,1,1,7,413,15,0.212890625,1.275390625,-0.16650390625,-37.53662109375,-71.4111328125,-92.529296875,-238.50635289393676,-238.52585613491652,38.61514679811476,1741601417.911646
412,1,1,7,428,15,0.3095703125,1.3212890625,-0.2392578125,-34.85107421875,-62.5,-107.5439453125,-254.9719640910916,-265.4695835484426,32.59736094896297,1741601417.9187937
413,1,1,7,443,15,0.39111328125,1.443359375,-0.25927734375,-31.982421875,-53.28369140625,-126.3427734375,-228.02823667756553,-246.010224860896,31.092914486675024,1741601417.9357502
414,1,1,7,458,15,0.4482421875,1.48583984375,-0.2626953125,-26.9775390625,-53.52783203125,-140.44189453125,-253.4750903458957,-246.010224860896,55.16405788328216,1741601417.9430006
415,1,1,7,473,15,0.5615234375,1.48681640625,-0.220703125,-19.71435546875,-59.75341796875,-154.296875,-272.9344490334423,-251.99771984167958,29.58846802438708,1741601417.9507902
416,1,1,7,488,15,0.802734375,1.61767578125,-0.2587890625,-11.962890625,-76.35498046875,-163.818359375,-247.48759536511216,-240.02272988011242,40.1195932604027,1741601417.9572003
417,1,1,7,503,15,1.10791015625,1.8251953125,-0.3896484375,-4.45556640625,-114.80712890625,-163.0859375,-254.9719640910916,-244.5133511157001,19.057342788371454,1741601417.9643586
418,1,1,7,518,15,1.0810546875,1.67919921875,-0.67333984375,-13.3056640625,-171.142578125,-149.35302734375,-259.4625853266793,-235.53210864452475,41.624039722690654,1741601417.9707878
419,1,1,7,533,15,0.3623046875,1.5615234375,-0.529296875,-32.5927734375,-210.0830078125,-163.26904296875,-266.9469540526587,-235.53210864452475,34.10180741125092,1741601417.9771767
420,1,1,7,548,15,-0.18701171875,1.93212890625,-0.478515625,-60.48583984375,-199.89013671875,-198.6083984375,-269.9407015430505,-217.56962370217403,31.092914486675024,1741601417.9843197
421,1,1,7,563,15,0.24560546875,1.90234375,-0.6982421875,-70.556640625,-176.26953125,-158.87451171875,-295.3875552113807,-235.53210864452475,10.030664014643778,1741601417.9907553
422,1,1,7,578,15,0.39892578125,1.37890625,-0.416015625,-72.93701171875,-143.00537109375,-124.0234375,-302.8719239373602,-231.04148740893706,17.55289632608351,1741601417.9971414
423,1,1,7,593,15,-0.45263671875,0.6943359375,-0.8544921875,-0.732421875,-82.275390625,-105.8349609375,-298.3813027017725,-217.56962370217403,31.092914486675024,1741601418.0051455
424,1,1,7,608,15,-0.10302734375,0.6416015625,-0.25146484375,28.86962890625,-23.92578125,-99.4873046875,-316.3437876441232,-210.08525497619456,17.55289632608351,1741601418.0115786
