Processed,Time(h),Time(m),Time(s),Time(ms),Delt,AccX,AccY,AccZ,GyroX,GyroY,GyroZ,MagX,MagY,MagZ,PCTimestamp
1,1,1,1,271,3661271,-0.0595703125,1.01025390625,-0.04931640625,-0.48828125,-0.48828125,2.197265625,59.3715224000459,-118.77595651924511,-320.94755768870436,1745594373.58237
2,1,1,1,286,15,-0.0615234375,1.0087890625,-0.05078125,-0.732421875,-0.48828125,1.64794921875,74.3402598520048,-124.76345150002867,-332.9831293870079,1745594373.5888507
3,1,1,1,301,15,-0.06884765625,1.0068359375,-0.0498046875,-0.9765625,-0.42724609375,1.03759765625,66.85589112602536,-111.29158779326563,-317.93866476412853,1745594373.5952988
4,1,1,1,316,15,-0.06787109375,1.00634765625,-0.0517578125,-0.9765625,-0.732421875,0.732421875,57.87464865484999,-117.27908277404921,-332.9831293870079,1745594373.601728
5,1,1,1,331,15,-0.0615234375,0.99609375,-0.03955078125,-1.0986328125,-0.9765625,0.42724609375,68.35276487122125,-106.80096655767797,-326.9653435378562,1745594373.6089766
6,1,1,1,346,15,-0.07080078125,0.9931640625,-0.0478515625,-1.28173828125,-1.46484375,0.0,62.365269890437666,-123.26657775483278,-328.46979000014414,1745594373.6154456
7,1,1,1,361,15,-0.0693359375,1.00341796875,-0.0419921875,-1.46484375,-1.15966796875,0.1220703125,69.84963861641714,-115.78220902885332,-317.93866476412853,1745594373.6218612
8,1,1,1,376,15,-0.07470703125,1.00048828125,-0.0498046875,-1.28173828125,-1.3427734375,0.0,77.3340073423966,-126.26032524522458,-331.47868292472,1745594373.6283653
9,1,1,1,391,15,-0.07568359375,0.99462890625,-0.05126953125,-1.46484375,-1.52587890625,0.18310546875,63.86214363563357,-117.27908277404921,-351.0364869344633,1745594373.6347816
10,1,1,1,406,15,-0.0625,0.99609375,-0.05908203125,-1.46484375,-1.15966796875,0.0,54.8809011644582,-123.26657775483278,-325.4608970755682,1745594373.6412468
11,1,1,1,421,15,-0.0634765625,1.00048828125,-0.05517578125,-1.77001953125,-1.40380859375,-0.30517578125,80.32775483278839,-129.25407273561638,-317.93866476412853,1745594373.6476946
12,1,1,1,436,15,-0.06201171875,1.005859375,-0.04931640625,-1.708984375,-1.40380859375,-0.30517578125,69.84963861641714,-108.29784030287387,-317.93866476412853,1745594373.6541023
13,1,1,1,451,15,-0.0634765625,1.00927734375,-0.0546875,-1.8310546875,-1.15966796875,-0.244140625,62.365269890437666,-111.29158779326563,-328.46979000014414,1745594373.6605442
14,1,1,1,466,15,-0.05859375,1.01123046875,-0.048828125,-1.953125,-1.0986328125,-0.54931640625,69.84963861641714,-129.25407273561638,-328.46979000014414,1745594373.6670349
15,1,1,1,481,15,-0.07177734375,1.0185546875,-0.04248046875,-1.89208984375,-0.8544921875,-0.91552734375,59.3715224000459,-123.26657775483278,-328.46979000014414,1745594373.683875
16,1,1,1,496,15,-0.06640625,1.0068359375,-0.033203125,-1.8310546875,-0.54931640625,-0.9765625,62.365269890437666,-118.77595651924511,-325.4608970755682,1745594373.690339
17,1,1,1,511,15,-0.06640625,1.00439453125,-0.0537109375,-1.89208984375,-0.6103515625,-0.79345703125,69.84963861641714,-108.29784030287387,-328.46979000014414,1745594373.6967807
18,1,1,1,526,15,-0.07275390625,1.0029296875,-0.0380859375,-1.89208984375,-0.9765625,-0.9765625,57.87464865484999,-124.76345150002867,-326.9653435378562,1745594373.7031896
19,1,1,1,541,15,-0.07568359375,1.00390625,-0.0419921875,-1.8310546875,-1.0986328125,-0.67138671875,63.86214363563357,-120.272830264441,-329.97423646243203,1745594373.7096198
20,1,1,1,556,15,-0.0732421875,0.99755859375,-0.05712890625,-1.8310546875,-0.9765625,-0.18310546875,44.40278494808696,-108.29784030287387,-320.94755768870436,1745594373.7160537
21,1,1,1,571,15,-0.07470703125,1.00048828125,-0.0390625,-1.708984375,-0.6103515625,-0.30517578125,78.83088108759249,-106.80096655767797,-316.43421830184053,1745594373.7224724
22,1,1,1,586,15,-0.08154296875,1.00341796875,-0.0380859375,-1.8310546875,-0.91552734375,0.0,51.887153674066425,-126.26032524522458,-325.4608970755682,1745594373.7291837
23,1,1,1,601,15,-0.07080078125,1.001953125,-0.04931640625,-2.01416015625,-0.732421875,0.18310546875,72.84338610680892,-123.26657775483278,-345.01870108531153,1745594373.7357152
24,1,1,1,616,15,-0.076171875,1.0068359375,-0.04638671875,-2.0751953125,-0.67138671875,0.1220703125,74.3402598520048,-109.79471404806975,-308.9119859904008,1745594373.7421474
25,1,1,1,631,15,-0.06884765625,1.00634765625,-0.0517578125,-2.197265625,-0.732421875,0.42724609375,47.396532438478744,-106.80096655767797,-332.9831293870079,1745594373.7486033
26,1,1,1,646,15,-0.06298828125,0.99755859375,-0.04931640625,-2.25830078125,-0.67138671875,0.30517578125,69.84963861641714,-118.77595651924511,-320.94755768870436,1745594373.755055
27,1,1,1,661,15,-0.06787109375,1.0029296875,-0.04736328125,-2.197265625,-0.732421875,0.42724609375,69.84963861641714,-118.77595651924511,-328.46979000014414,1745594373.7614663
28,1,1,1,676,15,-0.076171875,1.0087890625,-0.05029296875,-2.25830078125,-0.54931640625,0.18310546875,69.84963861641714,-111.29158779326563,-342.0098081607356,1745594373.767922
29,1,1,1,691,15,-0.06298828125,1.0087890625,-0.04638671875,-2.3193359375,-0.48828125,0.3662109375,81.82462857798427,-106.80096655767797,-326.9653435378562,1745594374.690172
30,1,1,1,706,15,-0.06103515625,1.0,-0.03662109375,-2.3193359375,-0.8544921875,0.42724609375,51.887153674066425,-118.77595651924511,-317.93866476412853,1745594374.69666
31,1,1,1,721,15,-0.06689453125,1.005859375,-0.041015625,-2.25830078125,-0.67138671875,-0.06103515625,66.85589112602536,-123.26657775483278,-335.99202231158387,1745594374.7030778
32,1,1,1,736,15,-0.0673828125,1.0009765625,-0.03076171875,-2.25830078125,-0.54931640625,0.244140625,69.84963861641714,-118.77595651924511,-328.46979000014414,1745594374.7095292
33,1,1,1,751,15,-0.07373046875,1.01123046875,-0.05224609375,-1.953125,-0.6103515625,0.0,68.35276487122125,-135.2415677163999,-337.4964687738718,1745594374.715964
34,1,1,1,766,15,-0.0693359375,1.00439453125,-0.037109375,-2.01416015625,-0.6103515625,0.06103515625,60.86839614524178,-124.76345150002867,-329.97423646243203,1745594374.722373
35,1,1,1,781,15,-0.06396484375,1.0068359375,-0.0380859375,-2.13623046875,-0.732421875,-0.1220703125,60.86839614524178,-120.272830264441,-348.0275940098874,1745594374.729295
36,1,1,1,796,15,-0.06640625,1.0,-0.05029296875,-1.953125,-0.732421875,-0.244140625,53.38402741926232,-109.79471404806975,-337.4964687738718,1745594374.735771
37,1,1,1,811,15,-0.06591796875,1.0,-0.044921875,-1.8310546875,-1.52587890625,-0.244140625,50.390279928870534,-117.27908277404921,-329.97423646243203,1745594374.7422576
38,1,1,1,826,15,-0.06298828125,1.0087890625,-0.0380859375,-1.89208984375,-1.3427734375,-0.30517578125,53.38402741926232,-117.27908277404921,-329.97423646243203,1745594374.804609
39,1,1,1,841,15,-0.0751953125,1.0068359375,-0.04833984375,-1.64794921875,-0.732421875,-0.3662109375,62.365269890437666,-115.78220902885332,-339.00091523615976,1745594374.8111105
40,1,1,1,856,15,-0.0732421875,0.9990234375,-0.0283203125,-1.708984375,-1.03759765625,-0.8544921875,62.365269890437666,-118.77595651924511,-325.4608970755682,1745594374.817582
41,1,1,1,871,15,-0.06494140625,1.01025390625,-0.048828125,-1.52587890625,-1.15966796875,-0.732421875,59.3715224000459,-123.26657775483278,-339.00091523615976,1745594374.8240178
42,1,1,1,886,15,-0.06396484375,1.0048828125,-0.04150390625,-1.3427734375,-1.46484375,-0.91552734375,74.3402598520048,-109.79471404806975,-329.97423646243203,1745594374.8309066
43,1,1,1,901,15,-0.06201171875,0.9990234375,-0.0400390625,-1.46484375,-1.708984375,-0.732421875,62.365269890437666,-111.29158779326563,-320.94755768870436,1745594374.83737
44,1,1,1,916,15,-0.07470703125,1.0068359375,-0.03466796875,-1.46484375,-1.5869140625,-0.91552734375,62.365269890437666,-118.77595651924511,-339.00091523615976,1745594374.8437994
45,1,1,1,931,15,-0.072265625,1.00341796875,-0.04345703125,-1.3427734375,-1.89208984375,-0.9765625,53.38402741926232,-124.76345150002867,-329.97423646243203,1745594374.8502412
46,1,1,1,946,15,-0.0693359375,1.0009765625,-0.037109375,-1.46484375,-1.64794921875,-1.15966796875,59.3715224000459,-100.81347157689439,-314.9297718395526,1745594374.8566875
47,1,1,1,961,15,-0.0712890625,1.0048828125,-0.03271484375,-1.28173828125,-1.52587890625,-1.0986328125,71.34651236161304,-106.80096655767797,-337.4964687738718,1745594374.8631368
48,1,1,1,976,15,-0.0751953125,0.99609375,-0.037109375,-1.40380859375,-1.46484375,-1.220703125,54.8809011644582,-118.77595651924511,-331.47868292472,1745594374.8922396
49,1,1,1,991,15,-0.06787109375,1.00341796875,-0.03515625,-1.220703125,-1.28173828125,-0.91552734375,69.84963861641714,-115.78220902885332,-331.47868292472,1745594374.8990545
50,1,1,2,6,15,-0.0693359375,1.00341796875,-0.0546875,-1.40380859375,-1.220703125,-0.8544921875,53.38402741926232,-132.24782022600812,-316.43421830184053,1745594374.9055095
51,1,1,2,21,15,-0.07568359375,1.00244140625,-0.03466796875,-1.220703125,-1.40380859375,-0.732421875,54.8809011644582,-111.29158779326563,-335.99202231158387,1745594374.9119165
52,1,1,2,36,15,-0.0732421875,1.00927734375,-0.021484375,-1.0986328125,-1.28173828125,-0.48828125,62.365269890437666,-126.26032524522458,-325.4608970755682,1745594374.918358
53,1,1,2,51,15,-0.07763671875,0.9990234375,-0.037109375,-0.91552734375,-1.3427734375,-0.18310546875,51.887153674066425,-111.29158779326563,-328.46979000014414,1745594374.9247706
54,1,1,2,66,15,-0.07666015625,1.00341796875,-0.03759765625,-0.732421875,-1.220703125,-0.18310546875,50.390279928870534,-120.272830264441,-319.4431112264165,1745594374.9534504
55,1,1,2,81,15,-0.08349609375,0.9921875,-0.04541015625,-0.54931640625,-1.28173828125,0.0,57.87464865484999,-127.75719899042046,-329.97423646243203,1745594374.9599488
56,1,1,2,96,15,-0.06787109375,1.00390625,-0.04736328125,-0.42724609375,-1.28173828125,0.6103515625,60.86839614524178,-120.272830264441,-340.50536169844764,1745594374.966396
57,1,1,2,111,15,-0.078125,1.00146484375,-0.044921875,-0.30517578125,-1.28173828125,0.91552734375,53.38402741926232,-109.79471404806975,-337.4964687738718,1745594374.9728074
58,1,1,2,126,15,-0.07861328125,1.00537109375,-0.0234375,-0.1220703125,-0.91552734375,1.3427734375,53.38402741926232,-127.75719899042046,-332.9831293870079,1745594374.979269
59,1,1,2,141,15,-0.07568359375,1.01708984375,-0.0341796875,0.0,-0.6103515625,1.64794921875,60.86839614524178,-117.27908277404921,-348.0275940098874,1745594374.9857311
60,1,1,2,156,15,-0.0810546875,1.0009765625,-0.05517578125,0.30517578125,-0.18310546875,2.197265625,51.887153674066425,-118.77595651924511,-331.47868292472,1745594374.9921567
61,1,1,2,171,15,-0.0771484375,1.01171875,-0.03369140625,0.42724609375,-0.91552734375,2.5634765625,71.34651236161304,-120.272830264441,-340.50536169844764,1745594374.9987562
62,1,1,2,186,15,-0.07666015625,1.00927734375,-0.0361328125,0.30517578125,-1.40380859375,2.74658203125,66.85589112602536,-133.74469397120401,-331.47868292472,1745594375.005243
63,1,1,2,201,15,-0.0625,1.01171875,-0.04541015625,0.54931640625,-1.89208984375,2.685546875,66.85589112602536,-111.29158779326563,-328.46979000014414,1745594375.0116713
64,1,1,2,216,15,-0.05615234375,1.013671875,-0.0390625,0.3662109375,-0.9765625,2.62451171875,44.40278494808696,-126.26032524522458,-331.47868292472,1745594375.018133
65,1,1,2,231,15,-0.06298828125,1.00341796875,-0.052734375,0.48828125,-0.6103515625,2.25830078125,63.86214363563357,-124.76345150002867,-329.97423646243203,1745594375.0245528
66,1,1,2,246,15,-0.0673828125,0.9921875,-0.044921875,0.244140625,-0.8544921875,2.0751953125,74.3402598520048,-127.75719899042046,-329.97423646243203,1745594375.0310438
67,1,1,2,261,15,-0.064453125,0.99365234375,-0.0498046875,0.0,-0.9765625,1.708984375,54.8809011644582,-115.78220902885332,-339.00091523615976,1745594375.0375044
68,1,1,2,276,15,-0.05224609375,1.00146484375,-0.0322265625,-0.1220703125,-0.91552734375,0.8544921875,53.38402741926232,-117.27908277404921,-332.9831293870079,1745594375.043933
69,1,1,2,291,15,-0.0546875,0.9951171875,-0.03173828125,-0.1220703125,-0.1220703125,0.30517578125,72.84338610680892,-111.29158779326563,-335.99202231158387,1745594375.0507483
70,1,1,2,306,15,-0.0625,1.0078125,-0.04052734375,-0.244140625,0.0,0.0,60.86839614524178,-127.75719899042046,-316.43421830184053,1745594375.0572052
71,1,1,2,321,15,-0.07080078125,1.009765625,-0.0556640625,-0.6103515625,-0.06103515625,-0.42724609375,54.8809011644582,-133.74469397120401,-328.46979000014414,1745594375.0636413
72,1,1,2,336,15,-0.06982421875,1.00390625,-0.0361328125,-0.54931640625,-0.30517578125,-0.244140625,62.365269890437666,-105.30409281248207,-325.4608970755682,1745594375.0701115
73,1,1,2,351,15,-0.060546875,1.0146484375,-0.05419921875,-0.91552734375,-1.28173828125,-0.30517578125,63.86214363563357,-109.79471404806975,-319.4431112264165,1745594375.0766006
74,1,1,2,366,15,-0.05224609375,1.0244140625,-0.06103515625,-1.3427734375,-1.28173828125,-0.30517578125,62.365269890437666,-118.77595651924511,-325.4608970755682,1745594375.0830402
75,1,1,2,381,15,-0.06201171875,1.02392578125,-0.05859375,-1.953125,-0.6103515625,-0.30517578125,60.86839614524178,-114.28533528365743,-323.95645061328025,1745594375.089487
76,1,1,2,396,15,-0.08349609375,1.01220703125,-0.05322265625,-2.38037109375,-0.732421875,-0.42724609375,71.34651236161304,-127.75719899042046,-337.4964687738718,1745594375.107761
77,1,1,2,411,15,-0.06494140625,1.005859375,-0.03759765625,-2.50244140625,-1.3427734375,0.0,72.84338610680892,-115.78220902885332,-335.99202231158387,1745594375.1142
78,1,1,2,426,15,-0.072265625,0.998046875,-0.044921875,-2.5634765625,-1.3427734375,0.18310546875,72.84338610680892,-115.78220902885332,-335.99202231158387,1745594375.120674
79,1,1,2,441,15,-0.06884765625,0.986328125,-0.03515625,-2.197265625,-0.67138671875,0.18310546875,57.87464865484999,-127.75719899042046,-337.4964687738718,1745594375.1271684
80,1,1,2,456,15,-0.072265625,0.984375,-0.03369140625,-2.13623046875,-0.30517578125,0.3662109375,60.86839614524178,-106.80096655767797,-337.4964687738718,1745594375.1336207
81,1,1,2,471,15,-0.080078125,0.9833984375,-0.03076171875,-1.708984375,0.1220703125,0.79345703125,71.34651236161304,-102.31034532209028,-332.9831293870079,1745594375.14007
82,1,1,2,486,15,-0.064453125,0.9951171875,-0.037109375,-1.40380859375,0.1220703125,0.9765625,69.84963861641714,-129.25407273561638,-328.46979000014414,1745594375.1465273
83,1,1,2,501,15,-0.0849609375,1.00830078125,-0.0498046875,-1.40380859375,0.0,1.64794921875,60.86839614524178,-117.27908277404921,-326.9653435378562,1745594375.153521
84,1,1,2,516,15,-0.07421875,0.99658203125,-0.04833984375,-0.91552734375,-1.89208984375,1.8310546875,72.84338610680892,-129.25407273561638,-328.46979000014414,1745594375.1660736
85,1,1,2,531,15,-0.0693359375,0.99267578125,-0.03564453125,-0.91552734375,-2.685546875,1.953125,72.84338610680892,-123.26657775483278,-342.0098081607356,1745594375.1725147
86,1,1,2,546,15,-0.04931640625,1.0,-0.05224609375,-0.91552734375,-2.9296875,1.220703125,63.86214363563357,-124.76345150002867,-329.97423646243203,1745594375.1789737
87,1,1,2,561,15,-0.04833984375,1.021484375,-0.06591796875,-1.52587890625,-2.13623046875,0.18310546875,63.86214363563357,-117.27908277404921,-332.9831293870079,1745594375.1854193
88,1,1,2,576,15,-0.03955078125,1.0107421875,-0.0458984375,-1.89208984375,-3.2958984375,-1.40380859375,62.365269890437666,-118.77595651924511,-331.47868292472,1745594375.1918364
89,1,1,2,591,15,-0.0341796875,1.01611328125,-0.064453125,-3.0517578125,-2.25830078125,-3.11279296875,62.365269890437666,-118.77595651924511,-331.47868292472,1745594375.1983235
90,1,1,2,606,15,-0.03662109375,1.01953125,-0.05029296875,-3.662109375,-1.15966796875,-4.94384765625,66.85589112602536,-115.78220902885332,-328.46979000014414,1745594375.2047617
91,1,1,2,621,15,-0.037109375,1.0244140625,-0.05908203125,-4.7607421875,-1.0986328125,-7.75146484375,62.365269890437666,-126.26032524522458,-328.46979000014414,1745594375.2112322
92,1,1,2,636,15,-0.0283203125,1.01953125,-0.08349609375,-6.53076171875,-0.67138671875,-10.7421875,51.887153674066425,-133.74469397120401,-335.99202231158387,1745594375.2177124
93,1,1,2,651,15,-0.02392578125,1.0234375,-0.08349609375,-8.72802734375,-1.953125,-15.2587890625,69.84963861641714,-123.26657775483278,-339.00091523615976,1745594375.226482
94,1,1,2,666,15,0.01806640625,1.03076171875,-0.0927734375,-11.65771484375,-1.28173828125,-20.263671875,63.86214363563357,-120.272830264441,-343.5142546230236,1745594375.233175
95,1,1,2,681,15,0.0087890625,1.0634765625,-0.07421875,-14.95361328125,0.6103515625,-26.67236328125,66.85589112602536,-118.77595651924511,-328.46979000014414,1745594375.239916
96,1,1,2,696,15,-0.00244140625,1.0830078125,-0.052734375,-18.5546875,1.46484375,-32.89794921875,66.85589112602536,-115.78220902885332,-335.99202231158387,1745594375.2539012
97,1,1,2,711,15,-0.00244140625,1.0771484375,-0.0615234375,-21.6064453125,0.54931640625,-40.283203125,62.365269890437666,-118.77595651924511,-331.47868292472,1745594375.2619882
98,1,1,2,726,15,0.0185546875,1.1005859375,-0.06982421875,-25.69580078125,-0.79345703125,-49.13330078125,53.38402741926232,-117.27908277404921,-340.50536169844764,1745594375.2700326
99,1,1,2,741,15,0.04150390625,1.1494140625,-0.09619140625,-30.57861328125,-2.0751953125,-60.05859375,53.38402741926232,-127.75719899042046,-329.97423646243203,1745594375.278289
100,1,1,2,756,15,0.01416015625,1.22216796875,-0.08740234375,-35.5224609375,-3.11279296875,-71.8994140625,57.87464865484999,-124.76345150002867,-340.50536169844764,1745594375.422137
101,1,1,2,771,15,0.10888671875,1.51123046875,-0.06640625,-44.12841796875,-3.23486328125,-88.19580078125,53.38402741926232,-138.23531520679174,-337.4964687738718,1745594375.4288545
102,1,1,2,786,15,0.140625,1.5380859375,-0.0283203125,-41.68701171875,5.9814453125,-96.74072265625,39.912163712499286,-127.75719899042046,-329.97423646243203,1745594375.4353502
103,1,1,2,801,15,0.2783203125,1.650390625,0.0009765625,-32.28759765625,39.85595703125,-105.28564453125,53.38402741926232,-135.2415677163999,-358.55871924590303,1745594375.4417913
104,1,1,2,816,15,0.1640625,1.5400390625,0.0703125,-31.06689453125,46.56982421875,-112.6708984375,47.396532438478744,-142.72593644237938,-343.5142546230236,1745594375.448255
105,1,1,2,831,15,0.07666015625,1.45263671875,0.01123046875,-31.8603515625,29.296875,-127.25830078125,38.415289967303394,-147.21655767796707,-331.47868292472,1745594375.454684
106,1,1,2,846,15,-0.25146484375,1.2744140625,-0.1630859375,-26.55029296875,30.45654296875,-124.3896484375,59.3715224000459,-162.18529512992598,-349.5320404721753,1745594375.466675
107,1,1,2,861,15,-0.25146484375,1.02978515625,-0.23681640625,-19.71435546875,9.1552734375,-119.2626953125,35.421542476911604,-166.6759163655137,-329.97423646243203,1745594375.473162
108,1,1,2,876,15,-0.34716796875,0.82861328125,-0.2392578125,-13.97705078125,-10.43701171875,-106.14013671875,29.43404749612803,-160.6884213847301,-340.50536169844764,1745594375.4796355
109,1,1,2,891,15,0.46533203125,0.6005859375,-0.2255859375,-7.62939453125,-46.38671875,-69.4580078125,33.924668731715705,-169.66966385590547,-320.94755768870436,1745594375.4860861
110,1,1,2,906,15,0.6806640625,0.47119140625,-0.07666015625,-1.5869140625,-51.81884765625,-30.82275390625,24.943426260540353,-160.6884213847301,-326.9653435378562,1745594375.4925246
111,1,1,2,921,15,0.55517578125,0.41650390625,-0.12548828125,9.3994140625,-34.72900390625,1.89208984375,30.930921241323926,-154.70092640394654,-335.99202231158387,1745594375.4989808
112,1,1,2,936,15,0.56884765625,0.40869140625,-0.1669921875,25.390625,-18.9208984375,36.31591796875,44.40278494808696,-144.22281018757528,-349.5320404721753,1745594375.5054598
113,1,1,2,951,15,0.48046875,0.4931640625,-0.15478515625,36.0107421875,-10.7421875,67.5048828125,41.40903745769517,-136.73844146159584,-335.99202231158387,1745594375.5118816
114,1,1,2,966,15,0.36376953125,0.6025390625,-0.1357421875,42.17529296875,-15.0146484375,95.8251953125,53.38402741926232,-127.75719899042046,-313.42532537726464,1745594375.5190175
115,1,1,2,981,15,0.29150390625,0.75146484375,-0.05712890625,46.32568359375,-23.4375,120.60546875,62.365269890437666,-126.26032524522458,-331.47868292472,1745594375.525492
116,1,1,2,996,15,0.224609375,0.8662109375,0.01904296875,48.7060546875,-26.0009765625,139.09912109375,66.85589112602536,-87.34160787013136,-320.94755768870436,1745594375.5319583
117,1,1,3,11,15,0.06591796875,0.9775390625,0.080078125,50.29296875,-23.49853515625,148.49853515625,74.3402598520048,-102.31034532209028,-313.42532537726464,1745594375.5445745
118,1,1,3,26,15,-0.111328125,1.08642578125,0.14990234375,51.08642578125,-17.333984375,150.69580078125,83.32150232318018,-61.894754201801184,-304.398646603537,1745594375.5510588
119,1,1,3,41,15,-0.33544921875,1.14990234375,0.15283203125,49.86572265625,-4.69970703125,147.15576171875,80.32775483278839,-52.91351173062582,-301.38975367896103,1745594375.5575159
120,1,1,3,56,15,-0.50927734375,1.21337890625,0.1015625,46.2646484375,9.33837890625,138.671875,98.2902397751391,-27.466658062295643,-293.86752136752136,1745594375.5639207
121,1,1,3,71,15,-0.59423828125,1.3056640625,0.08251953125,41.07666015625,23.681640625,122.61962890625,102.78086101072677,-8.007299374749035,-305.9030930658249,1745594375.5703623
122,1,1,3,86,15,-0.72412109375,1.3505859375,0.10693359375,34.72900390625,38.818359375,99.42626953125,98.2902397751391,0.9739430964263179,-280.32750320692986,1745594375.585985
123,1,1,3,101,15,-0.77978515625,1.25927734375,0.12451171875,25.57373046875,41.8701171875,72.6318359375,102.78086101072677,6.961438077209882,-289.35418198065753,1745594375.5924273
124,1,1,3,116,15,-0.771484375,1.15673828125,0.154296875,15.68603515625,33.203125,45.7763671875,110.26522973670623,35.40203923593186,-274.309717357778,1745594375.6343753
125,1,1,3,131,15,-0.6962890625,1.07275390625,0.2333984375,4.638671875,22.3388671875,19.71435546875,96.79336602994321,45.8801554523031,-274.309717357778,1745594375.640858
126,1,1,3,146,15,-0.51318359375,0.9345703125,0.3056640625,-7.01904296875,23.5595703125,-0.9765625,102.78086101072677,48.87390294269489,-278.8230567446419,1745594375.6473334
127,1,1,3,161,15,-0.3798828125,0.712890625,0.28173828125,-11.962890625,35.64453125,-14.58740234375,89.30899730396375,53.364524178282565,-265.28303858405036,1745594375.653863
128,1,1,3,176,15,-0.21728515625,0.4306640625,0.287109375,-10.55908203125,38.57421875,-16.54052734375,107.27148224631446,71.32700912063329,-268.29193150862625,1745594375.660319
129,1,1,3,191,15,-0.0087890625,0.04150390625,0.3623046875,-9.3994140625,20.3857421875,-5.0048828125,102.78086101072677,66.83638788504561,-265.28303858405036,1745594375.666771
130,1,1,3,206,15,0.20703125,-0.240234375,0.33349609375,-6.89697265625,-1.15966796875,13.00048828125,98.2902397751391,87.79262031778809,-272.8052708954901,1745594375.6732025
131,1,1,3,221,15,-6.22412109375,0.65087890625,-2.58447265625,51.69677734375,98.20556640625,-12.939453125,119.24647220788161,93.78011529857167,-280.32750320692986,1745594375.6796567
132,1,1,3,236,15,1.734375,5.82080078125,1.39404296875,-101.13525390625,-212.34130859375,-264.58740234375,114.75585097229393,89.28949406298399,-289.35418198065753,1745594375.6861968
133,1,1,3,251,15,1.083984375,-0.197265625,-0.35009765625,-9.70458984375,-0.732421875,-91.97998046875,122.24021969827338,65.33951413984971,-290.8586284429455,1745594375.6926916
134,1,1,3,266,15,-1.23974609375,1.39404296875,0.1806640625,9.033203125,62.56103515625,-104.248046875,131.22146216944873,81.80512533700454,-260.7696991971865,1745594375.699155
135,1,1,3,281,15,-0.21337890625,-0.33642578125,-0.33349609375,-12.20703125,-17.333984375,-118.896484375,141.69957838582,66.83638788504561,-268.29193150862625,1745594375.7056363
136,1,1,3,296,15,-0.2890625,1.1533203125,-0.0341796875,-14.09912109375,-3.173828125,-113.1591796875,135.71208340503642,53.364524178282565,-274.309717357778,1745594375.7120745
137,1,1,3,311,15,-0.248046875,1.13525390625,0.12353515625,-12.6953125,16.4794921875,-99.18212890625,150.68082085699535,54.86139792347845,-277.318610282354,1745594375.7185218
138,1,1,3,326,15,-0.423828125,0.97509765625,-0.10693359375,-6.40869140625,33.3251953125,-84.716796875,159.6620633281707,35.40203923593186,-274.309717357778,1745594375.7249408
139,1,1,3,341,15,-0.326171875,1.02197265625,-0.0341796875,-8.6669921875,14.404296875,-77.57568359375,149.18394711179948,35.40203923593186,-260.7696991971865,1745594375.7315168
140,1,1,3,356,15,-0.54052734375,0.87060546875,0.02978515625,-6.591796875,8.1787109375,-69.51904296875,183.61204325130498,21.930175529168814,-280.32750320692986,1745594375.738011
141,1,1,3,371,15,-0.39892578125,0.99951171875,-0.00927734375,-7.50732421875,-2.3193359375,-63.1103515625,161.1589370733666,21.930175529168814,-272.8052708954901,1745594375.7444527
142,1,1,3,386,15,-0.45947265625,1.0400390625,-0.015625,-6.2255859375,-2.0751953125,-51.45263671875,168.64330579934605,29.41454425514828,-283.3363961315057,1745594375.7509315
143,1,1,3,401,15,-0.48486328125,0.9921875,-0.0302734375,-5.2490234375,-3.90625,-39.24560546875,168.64330579934605,15.94268054838525,-280.32750320692986,1745594375.7917624
144,1,1,3,416,15,-0.4677734375,0.958984375,-0.0283203125,-7.01904296875,-10.1318359375,-28.4423828125,170.14017954454195,14.445806803189347,-271.3008244332022,1745594375.803376
145,1,1,3,431,15,-0.43310546875,1.01123046875,-0.02783203125,-8.7890625,-16.78466796875,-20.5078125,173.13392703493375,15.94268054838525,-272.8052708954901,1745594375.8098488
146,1,1,3,446,15,-0.43603515625,0.91845703125,-0.0556640625,-8.60595703125,-16.7236328125,-10.68115234375,189.59953823208855,-6.510425629553148,-280.32750320692986,1745594375.8169477
147,1,1,3,461,15,-0.513671875,0.92529296875,-0.0185546875,-8.30078125,-16.41845703125,-1.28173828125,185.10891699650088,2.4708168416222125,-278.8230567446419,1745594375.8233702
148,1,1,3,476,15,-0.44140625,1.00390625,-0.044921875,-10.55908203125,-20.20263671875,7.32421875,186.60579074169678,15.94268054838525,-283.3363961315057,1745594375.9522586
149,1,1,3,491,15,-0.423828125,0.9921875,-0.0419921875,-10.68115234375,-22.76611328125,15.5029296875,161.1589370733666,18.936428038777038,-286.34528905608164,1745594375.958754
150,1,1,3,506,15,-0.39453125,0.998046875,-0.01220703125,-11.71875,-23.0712890625,20.93505859375,168.64330579934605,-2.019804393965471,-283.3363961315057,1745594375.9652107
151,1,1,3,521,15,-0.34326171875,0.998046875,-0.0302734375,-12.8173828125,-18.85986328125,25.32958984375,170.14017954454195,9.95518556760167,-284.84084259379364,1745594375.9716423
152,1,1,3,536,15,-0.3505859375,1.1572265625,-0.0693359375,-12.14599609375,-18.00537109375,22.03369140625,158.16518958297482,29.41454425514828,-286.34528905608164,1745594375.9780915
153,1,1,3,551,15,-0.181640625,1.07666015625,-0.0927734375,-9.3994140625,-5.2490234375,26.79443359375,158.16518958297482,18.936428038777038,-277.318610282354,1745594375.984519
154,1,1,3,566,15,-0.248046875,1.087890625,-0.080078125,-10.498046875,2.8076171875,21.1181640625,167.14643205415018,20.433301783972926,-289.35418198065753,1745594376.023832
155,1,1,3,581,15,-0.26318359375,0.9853515625,-0.1142578125,-17.15087890625,-8.72802734375,12.63427734375,165.64955830895428,8.458311822405784,-277.318610282354,1745594376.030601
156,1,1,3,596,15,-0.18359375,1.2587890625,-0.0107421875,-23.01025390625,-21.17919921875,-4.2724609375,147.68707336660356,26.420796764756492,-293.86752136752136,1745594376.052362
157,1,1,3,611,15,-0.1025390625,1.322265625,-0.03662109375,-21.05712890625,-12.26806640625,-14.16015625,140.2027046406241,36.898912981127744,-272.8052708954901,1745594376.0588567
158,1,1,3,626,15,-0.09716796875,1.5,0.03662109375,-26.0009765625,-11.04736328125,-29.6630859375,149.18394711179948,20.433301783972926,-281.83194966921775,1745594376.065307
159,1,1,3,641,15,0.04931640625,1.65380859375,0.02490234375,-35.15625,-5.4931640625,-42.41943359375,146.19019962140766,38.395786726323635,-284.84084259379364,1745594376.0717368
160,1,1,3,656,15,0.09423828125,1.42724609375,0.01025390625,-39.6728515625,4.638671875,-56.2744140625,131.22146216944873,20.433301783972926,-274.309717357778,1745594376.0781898
161,1,1,3,671,15,-0.1796875,1.3388671875,-0.154296875,-35.5224609375,19.47021484375,-81.298828125,129.72458842425286,33.90516549073595,-286.34528905608164,1745594376.084625
162,1,1,3,686,15,0.00244140625,1.294921875,-0.2197265625,-31.06689453125,22.15576171875,-101.5625,144.6933258762118,29.41454425514828,-272.8052708954901,1745594376.091069
163,1,1,3,701,15,-0.23828125,1.29150390625,-0.17529296875,-27.64892578125,4.69970703125,-112.1826171875,125.23396718866519,20.433301783972926,-292.36307490523336,1745594376.1027787
164,1,1,3,716,15,-0.091796875,1.14404296875,-0.142578125,-22.39990234375,-20.99609375,-116.76025390625,129.72458842425286,15.94268054838525,-283.3363961315057,1745594376.1331732
165,1,1,3,731,15,-0.04736328125,0.93994140625,-0.15185546875,-13.36669921875,-33.38623046875,-111.6943359375,134.21520965984053,5.464564332013994,-290.8586284429455,1745594376.1396797
166,1,1,3,746,15,0.24755859375,0.76025390625,-0.1650390625,-2.9296875,-40.46630859375,-93.68896484375,135.71208340503642,24.923923019560604,-271.3008244332022,1745594376.1710541
167,1,1,3,761,15,0.44091796875,0.52392578125,-0.15869140625,7.4462890625,-39.9169921875,-64.27001953125,129.72458842425286,11.452059312797573,-272.8052708954901,1745594376.1776311
168,1,1,3,776,15,0.3759765625,0.455078125,-0.06103515625,15.7470703125,-54.8095703125,-32.958984375,141.69957838582,20.433301783972926,-284.84084259379364,1745594376.1840863
169,1,1,3,791,15,0.46533203125,0.373046875,0.0322265625,20.99609375,-67.0166015625,0.54931640625,119.24647220788161,29.41454425514828,-269.79637797091425,1745594376.1905744
170,1,1,3,806,15,0.447265625,0.392578125,0.08984375,25.32958984375,-65.3076171875,34.72900390625,128.22771467905696,42.886407961911324,-265.28303858405036,1745594376.1970625
171,1,1,3,821,15,0.39208984375,0.49169921875,0.1474609375,30.09033203125,-58.9599609375,65.185546875,122.24021969827338,57.85514541387024,-256.2563598103227,1745594376.203668
172,1,1,3,836,15,0.29541015625,0.61279296875,0.1728515625,34.3017578125,-46.38671875,91.61376953125,122.24021969827338,90.78636780817989,-242.7163416497312,1745594376.2101507
173,1,1,3,851,15,0.1435546875,0.76123046875,0.18505859375,37.109375,-34.48486328125,112.548828125,120.74334595307748,92.28324155337577,-236.69855580057938,1745594376.2166457
174,1,1,3,866,15,-0.01416015625,0.9072265625,0.22607421875,38.330078125,-28.13720703125,125.67138671875,119.24647220788161,116.23322147651005,-227.67187702685172,1745594376.2231646
175,1,1,3,881,15,-0.1552734375,1.05517578125,0.2998046875,36.56005859375,-26.4892578125,131.40869140625,117.74959846268571,143.17694889003613,-215.63630532854816,1745594376.2351997
176,1,1,3,896,15,-0.31396484375,1.1025390625,0.3876953125,31.25,-20.32470703125,132.14111328125,126.73084093386106,183.59254001032522,-214.13185886626022,1745594376.241676
177,1,1,3,911,15,-0.45068359375,1.14111328125,0.43505859375,23.8037109375,-11.77978515625,127.25830078125,110.26522973670623,189.58003499110882,-220.149644715412,1745594376.24816
178,1,1,3,926,15,-0.55419921875,1.16015625,0.5107421875,13.97705078125,-1.0986328125,117.0654296875,102.78086101072677,218.02063614983078,-199.08739424338074,1745594376.2545915
179,1,1,3,941,15,-0.60693359375,1.146484375,0.5302734375,3.47900390625,19.34814453125,102.9052734375,77.3340073423966,237.47999483737738,-214.13185886626022,1745594376.2610703
180,1,1,3,956,15,-0.68603515625,1.12548828125,0.50048828125,-5.31005859375,46.81396484375,87.09716796875,59.3715224000459,262.92684850570754,-218.64519825312405,1745594376.2675483
181,1,1,3,971,15,-0.77099609375,1.01025390625,0.44140625,-13.36669921875,67.32177734375,70.73974609375,59.3715224000459,283.88308093845006,-200.5918407056687,1745594376.2741008
182,1,1,3,986,15,-0.88037109375,0.861328125,0.306640625,-18.00537109375,68.78662109375,57.80029296875,32.42779498651982,289.87057591923366,-212.62741240397224,1745594376.2806025
183,1,1,4,1,15,-0.89697265625,0.65673828125,0.30712890625,-22.39990234375,52.79541015625,52.18505859375,15.962183789364998,309.3299346067803,-218.64519825312405,1745594376.2974658
184,1,1,4,16,15,-0.73583984375,0.4345703125,0.25341796875,-28.01513671875,35.82763671875,48.33984375,-3.4971748981816093,324.29867205873916,-209.61851947939635,1745594376.3039236
185,1,1,4,31,15,-0.55810546875,0.17724609375,0.1328125,-28.50341796875,40.4052734375,47.05810546875,0.9934463374060689,339.2674095106981,-233.6896628760035,1745594376.3103824
186,1,1,4,46,15,-3.7578125,1.05908203125,-0.0498046875,-19.6533203125,59.99755859375,26.30615234375,-18.465912350140538,346.7517782366776,-244.22078811201914,1745594376.322029
187,1,1,4,61,15,-2.89404296875,2.703125,-1.12353515625,-13.97705078125,29.1748046875,-139.70947265625,-21.45965984053232,369.20488441461595,-242.7163416497312,1745594376.3337996
188,1,1,4,76,15,2.37255859375,-0.1689453125,-0.353515625,-2.25830078125,-25.69580078125,-19.34814453125,-15.472164859748752,367.70801066942005,-257.76080627261064,1745594376.3402877
189,1,1,4,91,15,-0.4228515625,2.1904296875,0.09228515625,-10.8642578125,7.75146484375,-97.22900390625,-0.5034274077898239,366.2111369242242,-242.7163416497312,1745594376.3470225
190,1,1,4,106,15,-0.2099609375,0.609375,0.37353515625,-3.47900390625,-11.65771484375,-75.927734375,12.968436298973211,355.7330207078529,-256.2563598103227,1745594376.3593626
191,1,1,4,121,15,-0.53955078125,0.818359375,0.15869140625,3.41796875,14.16015625,-90.14892578125,21.949678770148566,360.22364194344055,-250.2385739611709,1745594376.3760192
192,1,1,4,136,15,-0.44189453125,0.859375,0.033203125,-0.1220703125,2.44140625,-84.28955078125,5.484067572993745,348.2486519818735,-221.6540911776999,1745594376.3824599
193,1,1,4,151,15,-0.28076171875,0.93994140625,0.01416015625,-3.7841796875,-2.13623046875,-81.0546875,30.930921241323926,348.2486519818735,-248.73412749888297,1745594376.3889847
194,1,1,4,166,15,-0.5048828125,0.93896484375,0.04833984375,-3.0517578125,0.0,-74.5849609375,29.43404749612803,360.22364194344055,-239.7074487251553,1745594376.3954356
195,1,1,4,181,15,-0.3583984375,0.9765625,0.00732421875,-5.79833984375,-3.60107421875,-69.03076171875,51.887153674066425,348.2486519818735,-232.18521641371555,1745594376.4018626
196,1,1,4,196,15,-0.4560546875,0.87646484375,0.04833984375,-9.58251953125,-4.45556640625,-63.4765625,41.40903745769517,348.2486519818735,-235.19410933829147,1745594376.4083438
197,1,1,4,211,15,-0.47021484375,0.9462890625,0.0654296875,-11.962890625,-5.126953125,-57.92236328125,66.85589112602536,351.2423994722652,-232.18521641371555,1745594376.4147587
198,1,1,4,226,15,-0.42578125,0.921875,0.01171875,-12.75634765625,-7.01904296875,-51.69677734375,68.35276487122125,331.7830407847186,-236.69855580057938,1745594376.4212012
199,1,1,4,241,15,-0.50537109375,1.0673828125,0.09521484375,-15.13671875,-8.36181640625,-47.54638671875,68.35276487122125,346.7517782366776,-233.6896628760035,1745594376.4280972
200,1,1,4,256,15,-0.4716796875,1.029296875,0.08837890625,-17.88330078125,-11.29150390625,-40.771484375,77.3340073423966,337.77053576550225,-238.20300226286733,1745594376.4345293
201,1,1,4,271,15,-0.529296875,1.01904296875,0.08935546875,-21.17919921875,-9.6435546875,-34.5458984375,96.79336602994321,342.2611570010899,-239.7074487251553,1745594376.440994
202,1,1,4,286,15,-0.49853515625,0.99169921875,0.05810546875,-23.86474609375,-9.6435546875,-27.03857421875,80.32775483278839,337.77053576550225,-238.20300226286733,1745594376.44744
203,1,1,4,301,15,-0.505859375,0.93359375,0.07373046875,-26.4892578125,-12.14599609375,-20.69091796875,101.28398726553088,333.2799145299145,-238.20300226286733,1745594376.4538896
204,1,1,4,316,15,-0.50830078125,0.93994140625,0.11181640625,-27.40478515625,-14.0380859375,-13.3056640625,83.32150232318018,333.2799145299145,-245.72523457430705,1745594376.470584
205,1,1,4,331,15,-0.482421875,1.029296875,0.111328125,-28.9306640625,-20.08056640625,-11.71875,99.787113520335,342.2611570010899,-223.15853763998788,1745594376.4770617
206,1,1,4,346,15,-0.4560546875,1.12744140625,0.080078125,-30.029296875,-26.9775390625,-14.95361328125,105.77460850111856,333.2799145299145,-227.67187702685172,1745594376.4834816
207,1,1,4,361,15,-0.35693359375,1.14599609375,0.0791015625,-30.45654296875,-26.3671875,-17.63916015625,89.30899730396375,336.27366202030635,-223.15853763998788,1745594376.4899433
208,1,1,4,376,15,-0.4833984375,1.2958984375,0.10009765625,-30.2734375,-27.77099609375,-25.32958984375,83.32150232318018,345.2549044914817,-232.18521641371555,1745594376.4963968
209,1,1,4,391,15,-0.2841796875,1.3876953125,0.1416015625,-35.70556640625,-38.0859375,-33.203125,81.82462857798427,324.29867205873916,-220.149644715412,1745594376.6833172
210,1,1,4,406,15,-0.3330078125,1.6767578125,0.21826171875,-37.7197265625,-31.005859375,-44.61669921875,92.30274479435553,336.27366202030635,-226.16743056456374,1745594376.8316627
211,1,1,4,421,15,-0.27001953125,1.60302734375,0.2294921875,-42.54150390625,-17.578125,-51.025390625,83.32150232318018,333.2799145299145,-227.67187702685172,1745594376.8381422
212,1,1,4,436,15,-0.1630859375,1.49609375,0.1103515625,-42.6025390625,-4.57763671875,-63.41552734375,96.79336602994321,331.7830407847186,-223.15853763998788,1745594376.8445768
213,1,1,4,451,15,-0.16357421875,1.36279296875,0.04638671875,-37.7197265625,-6.40869140625,-68.66455078125,81.82462857798427,324.29867205873916,-233.6896628760035,1745594376.8510423
214,1,1,4,466,15,-0.1845703125,1.39404296875,-0.02392578125,-33.69140625,-15.80810546875,-76.72119140625,71.34651236161304,328.78929329432685,-215.63630532854816,1745594376.8578572
215,1,1,4,481,15,-0.10009765625,1.2890625,-0.1337890625,-21.8505859375,-13.73291015625,-75.927734375,78.83088108759249,321.30492456834736,-215.63630532854816,1745594376.8647573
216,1,1,4,496,15,-0.123046875,1.15966796875,-0.142578125,-8.23974609375,1.64794921875,-64.39208984375,71.34651236161304,336.27366202030635,-220.149644715412,1745594376.8715088
217,1,1,4,511,15,-0.43115234375,0.97900390625,-0.07421875,-1.77001953125,-2.685546875,-65.12451171875,59.3715224000459,316.8143033327597,-221.6540911776999,1745594376.8779821
218,1,1,4,526,15,-0.73486328125,1.02099609375,-0.11376953125,4.638671875,-17.63916015625,-70.61767578125,47.396532438478744,318.3111770779556,-212.62741240397224,1745594376.8844235
219,1,1,4,541,15,-0.02490234375,0.88134765625,-0.1494140625,11.23046875,-34.7900390625,-60.72998046875,62.365269890437666,330.2861670395227,-193.06960839422894,1745594376.890878
220,1,1,4,556,15,0.6689453125,0.705078125,-0.26123046875,24.47509765625,-3.23486328125,-43.701171875,47.396532438478744,307.8330608615844,-188.5562690073651,1745594376.8973327
221,1,1,4,571,15,0.220703125,0.64013671875,-0.48388671875,49.86572265625,49.49951171875,-16.2353515625,24.943426260540353,328.78929329432685,-188.5562690073651,1745594376.903768
222,1,1,4,586,15,0.01220703125,0.6982421875,-0.17578125,54.3212890625,-21.3623046875,2.197265625,33.924668731715705,322.80179831354326,-179.52959023363744,1745594376.910221
223,1,1,4,601,15,0.28271484375,0.6494140625,0.01806640625,50.9033203125,-83.8623046875,27.52685546875,29.43404749612803,346.7517782366776,-185.5473760827892,1745594376.9168184
224,1,1,4,616,15,0.3759765625,0.5478515625,0.1328125,52.734375,-99.30419921875,49.560546875,0.9934463374060689,346.7517782366776,-175.0162508467736,1745594376.9234152
225,1,1,4,631,15,0.4609375,0.55078125,0.22216796875,58.77685546875,-93.3837890625,69.82421875,-10.981543624161073,358.72676819824466,-144.92732160101465,1745594376.9354033
226,1,1,4,646,15,0.45751953125,0.64501953125,0.27734375,66.650390625,-69.3359375,88.7451171875,-40.91901852807893,400.6392330637297,-132.89174990271113,1745594376.9418447
227,1,1,4,661,15,0.31689453125,0.6962890625,0.25537109375,72.998046875,-40.46630859375,109.86328125,-81.33460964836804,399.1423593185338,-110.32505296839192,1745594376.9483085
228,1,1,4,676,15,0.22021484375,0.76171875,0.2861328125,75.439453125,-19.34814453125,128.23486328125,-84.32835713875981,405.1298542993174,-107.31616004381601,1745594376.9547298
229,1,1,4,691,15,0.1083984375,0.861328125,0.3720703125,73.54736328125,-0.48828125,141.9677734375,-157.67517065335855,432.07358171284346,-95.28058834551246,1745594376.9611976
230,1,1,4,706,15,-0.04736328125,0.94580078125,0.5068359375,66.34521484375,18.61572265625,151.4892578125,-171.1470343601216,447.0423191648024,-92.27169542093657,1745594376.9676485
231,1,1,4,721,15,-0.19091796875,1.03076171875,0.5703125,54.5654296875,34.3017578125,154.78515625,-248.98446911030803,454.52668789078183,-108.82060650610397,1745594376.9740648
232,1,1,4,736,15,-0.33447265625,1.06982421875,0.57666015625,41.259765625,45.5322265625,153.38134765625,-265.4500803074629,459.0173091263695,-110.32505296839192,1745594376.980518
233,1,1,4,751,15,-0.47412109375,1.06103515625,0.53076171875,28.1982421875,54.8095703125,150.146484375,-320.8344088797109,454.52668789078183,-119.35173174211958,1745594376.9869804
234,1,1,4,766,15,-0.6044921875,1.09619140625,0.5244140625,17.39501953125,61.95068359375,144.10400390625,-352.2687575288246,460.5141828715654,-140.41398221415082,1745594377.369612
235,1,1,4,781,15,-0.71044921875,1.1142578125,0.56103515625,7.6904296875,66.0400390625,132.87353515625,-416.634328572248,432.07358171284346,-126.87396405355932,1745594377.3814106
236,1,1,4,796,15,-0.8642578125,1.05810546875,0.5732421875,-1.03759765625,76.66015625,116.02783203125,-448.0686772213618,439.5579504388229,-150.94510745016646,1745594377.3878758
237,1,1,4,811,15,-0.9677734375,1.015625,0.53662109375,-8.85009765625,92.041015625,95.27587890625,-491.4780158320427,427.58296047725577,-165.98957207304593,1745594377.4225779
238,1,1,4,826,15,-1.029296875,0.9482421875,0.43701171875,-15.380859375,98.57177734375,75.0732421875,-519.9186169907647,420.09859175127633,-184.04292962050127,1745594377.4294624
239,1,1,4,841,15,-0.98974609375,0.7548828125,0.42041015625,-23.0712890625,89.29443359375,63.720703125,-558.8373343658578,394.65173808294617,-203.60073363024458,1745594377.4359221
240,1,1,4,856,15,-0.8046875,0.45654296875,0.326171875,-29.78515625,86.85302734375,61.21826171875,-587.2779355245798,376.68925314059544,-200.5918407056687,1745594377.4423277
241,1,1,4,871,15,-0.5556640625,0.18701171875,0.16015625,-28.9306640625,99.2431640625,66.2841796875,-612.7247891929101,358.72676819824466,-208.1140730171084,1745594377.448759
242,1,1,4,886,15,-0.3203125,0.1279296875,0.09130859375,-15.2587890625,110.16845703125,78.55224609375,-630.6872741352607,351.2423994722652,-238.20300226286733,1745594377.4551964
243,1,1,4,901,15,-4.73291015625,0.21240234375,-1.7783203125,-2.3193359375,116.943359375,93.32275390625,-639.668516606436,336.27366202030635,-247.22968103659503,1745594377.461616
244,1,1,4,916,15,-4.783203125,4.84033203125,-1.44140625,-7.32421875,99.853515625,-231.01806640625,-654.6372540583949,309.3299346067803,-259.2652527348986,1745594377.4680328
245,1,1,4,931,15,5.5400390625,0.20263671875,-0.62890625,-5.18798828125,-247.4365234375,31.73828125,-663.6184965295704,324.29867205873916,-268.29193150862625,1745594377.4744327
246,1,1,4,946,15,-1.17041015625,1.45556640625,0.31689453125,-6.89697265625,82.70263671875,-94.1162109375,-642.6622640968278,349.7455257270693,-233.6896628760035,1745594377.4809039
247,1,1,4,961,15,0.072265625,0.78466796875,0.40625,-22.8271484375,-38.818359375,-96.98486328125,-648.6497590776114,351.2423994722652,-245.72523457430705,1745594377.4874632
248,1,1,4,976,15,-0.44287109375,0.6201171875,0.041015625,5.43212890625,24.5361328125,-105.28564453125,-630.6872741352607,355.7330207078529,-251.74302042345886,1745594377.493894
249,1,1,4,991,15,-0.5830078125,0.84228515625,-0.0244140625,-4.82177734375,7.62939453125,-100.52490234375,-633.6810216256525,381.1798743761831,-262.27414565947447,1745594377.500373
250,1,1,5,6,15,-0.0966796875,1.17626953125,0.17236328125,1.89208984375,16.54052734375,-86.0595703125,-605.2404204669306,373.69550565020364,-248.73412749888297,1745594377.5068142
251,1,1,5,21,15,-0.3564453125,0.90087890625,-0.0146484375,0.42724609375,36.80419921875,-73.42529296875,-609.7310417025183,394.65173808294617,-245.72523457430705,1745594377.5134804
252,1,1,5,36,15,-0.5048828125,0.90478515625,0.03173828125,-6.16455078125,19.04296875,-74.40185546875,-605.2404204669306,384.1736218665749,-248.73412749888297,1745594377.5252755
253,1,1,5,51,15,-0.31103515625,1.06298828125,0.0712890625,-14.7705078125,1.28173828125,-76.66015625,-591.7685567601675,415.6079705156886,-256.2563598103227,1745594377.5321116
254,1,1,5,66,15,-0.30859375,1.10546875,0.14404296875,-17.2119140625,1.953125,-72.08251953125,-584.284188034188,427.58296047725577,-266.7874850463383,1745594377.5385752
255,1,1,5,81,15,-0.43017578125,1.091796875,0.0439453125,-16.6015625,2.25830078125,-69.03076171875,-564.8248293466414,418.6017180060804,-265.28303858405036,1745594377.5450375
256,1,1,5,96,15,-0.41162109375,1.02001953125,0.03076171875,-21.484375,-6.103515625,-64.8193359375,-563.3279556014455,427.58296047725577,-251.74302042345886,1745594377.5515366
257,1,1,5,111,15,-0.3955078125,0.9267578125,0.0341796875,-26.123046875,-7.38525390625,-62.01171875,-557.3404606206619,421.59546549647223,-257.76080627261064,1745594377.5580149
258,1,1,5,126,15,-0.46728515625,0.82568359375,0.11474609375,-25.81787109375,-0.42724609375,-54.38232421875,-566.3217030918373,438.061076693627,-245.72523457430705,1745594377.564409
259,1,1,5,141,15,-0.552734375,0.8837890625,0.13916015625,-28.4423828125,-1.5869140625,-48.76708984375,-554.3467131302702,454.52668789078183,-244.22078811201914,1745594377.570836
260,1,1,5,156,15,-0.5048828125,0.95654296875,0.09423828125,-32.2265625,-8.4228515625,-42.1142578125,-546.8623444042908,450.0360666551942,-257.76080627261064,1745594377.5875685
261,1,1,5,171,15,-0.5048828125,1.02978515625,0.12353515625,-35.09521484375,-16.11328125,-39.73388671875,-528.89985946194,457.5204353811736,-244.22078811201914,1745594377.5939765
262,1,1,5,186,15,-0.43505859375,1.1845703125,0.11572265625,-33.69140625,-23.5595703125,-41.93115234375,-536.3842281879195,450.0360666551942,-239.7074487251553,1745594377.6004105
263,1,1,5,201,15,-0.42431640625,1.0537109375,0.14208984375,-35.2783203125,-15.0146484375,-43.88427734375,-534.8873544427236,476.97979406872025,-214.13185886626022,1745594377.6196582
264,1,1,5,216,15,-0.4501953125,1.10205078125,0.18408203125,-37.7197265625,-17.08984375,-50.537109375,-537.8811019331152,463.5079303619572,-232.18521641371555,1745594377.626542
265,1,1,5,231,15,-0.33154296875,1.43408203125,0.26416015625,-39.55078125,-15.19775390625,-65.3076171875,-518.4217432455688,472.4891728331325,-233.6896628760035,1745594377.6329536
266,1,1,5,246,15,-0.3271484375,1.4091796875,0.27734375,-38.14697265625,-7.87353515625,-75.8056640625,-518.4217432455688,478.47666781391615,-223.15853763998788,1745594377.6393845
267,1,1,5,261,15,-0.5,1.59033203125,0.2373046875,-31.67724609375,-12.14599609375,-85.9375,-506.4467532840016,484.46416279469975,-211.12296594168433,1745594377.6458
268,1,1,5,276,15,-0.42431640625,1.67822265625,0.12353515625,-28.4423828125,-27.16064453125,-97.16796875,-478.00615212527964,479.97354155911205,-227.67187702685172,1745594377.652187
269,1,1,5,291,15,-0.2685546875,1.763671875,0.1123046875,-23.92578125,-43.0908203125,-108.09326171875,-485.4905208512591,487.45791028509143,-200.5918407056687,1745594377.6586
270,1,1,5,306,15,-0.1865234375,1.77099609375,0.07177734375,-21.91162109375,-54.6875,-118.1640625,-475.01240463488784,502.4266477370504,-200.5918407056687,1745594377.6650453
271,1,1,5,321,15,-0.06787109375,1.65234375,0.04833984375,-19.775390625,-56.396484375,-124.6337890625,-448.0686772213618,493.445405265875,-202.09628716795666,1745594377.6714566
272,1,1,5,336,15,0.08935546875,1.5537109375,-0.00390625,-6.65283203125,-20.3857421875,-111.75537109375,-430.10619227901105,496.4391527562668,-191.56516193194102,1745594377.7397356
273,1,1,5,351,15,-0.20458984375,1.0205078125,0.0673828125,-12.26806640625,7.4462890625,-98.20556640625,-412.1437073366603,482.96728904950385,-178.0251437713495,1745594377.8113618
274,1,1,5,366,15,-0.91064453125,0.92529296875,-0.05712890625,-6.65283203125,9.58251953125,-103.69873046875,-401.6655911202891,482.96728904950385,-185.5473760827892,1745594377.8245852
275,1,1,5,381,15,-0.45654296875,0.8291015625,-0.185546875,-3.23486328125,3.96728515625,-94.42138671875,-401.6655911202891,475.48292032352435,-175.0162508467736,1745594377.8366942
276,1,1,5,396,15,0.2294921875,0.63623046875,-0.23681640625,3.7841796875,-8.72802734375,-61.82861328125,-397.17496988470145,463.5079303619572,-203.60073363024458,1745594377.8431184
277,1,1,5,411,15,0.80126953125,0.56982421875,-0.32177734375,19.59228515625,19.71435546875,-38.75732421875,-383.70310617793837,457.5204353811736,-191.56516193194102,1745594377.8495703
278,1,1,5,426,15,0.21044921875,0.59228515625,-0.53564453125,40.8935546875,56.15234375,-1.89208984375,-379.2124849423507,451.5329404003901,-208.1140730171084,1745594377.856007
279,1,1,5,441,15,0.0107421875,0.66064453125,-0.322265625,51.33056640625,-7.4462890625,26.0009765625,-380.70935868754657,457.5204353811736,-233.6896628760035,1745594377.8624265
280,1,1,5,456,15,0.19677734375,0.6748046875,-0.05712890625,51.025390625,-77.57568359375,49.01123046875,-397.17496988470145,430.57670796764756,-224.66298410227583,1745594377.8688822
281,1,1,5,471,15,0.265625,0.6376953125,0.06298828125,59.63134765625,-76.84326171875,72.8759765625,-404.6593386106809,429.07983422245167,-212.62741240397224,1745594377.8753197
282,1,1,5,486,15,0.27099609375,0.73291015625,0.12060546875,70.73974609375,-53.28369140625,95.947265625,-431.60306602420695,405.1298542993174,-211.12296594168433,1745594377.8817875
283,1,1,5,501,15,0.18115234375,0.7822265625,0.10302734375,81.1767578125,-24.2919921875,116.27197265625,-446.5718034761659,412.61422302529684,-211.12296594168433,1745594377.8882887
284,1,1,5,516,15,0.0712890625,0.8388671875,0.14013671875,86.60888671875,-12.8173828125,135.92529296875,-461.5405409281248,396.148611828142,-220.149644715412,1745594377.900299
285,1,1,5,531,15,0.02197265625,0.88232421875,0.25048828125,86.24267578125,-14.404296875,151.67236328125,-480.99989961567144,376.68925314059544,-227.67187702685172,1745594377.906758
286,1,1,5,546,15,0.0244140625,0.91455078125,0.3623046875,83.19091796875,-12.75634765625,164.55078125,-504.9498795388057,339.2674095106981,-247.22968103659503,1745594377.9131682
287,1,1,5,561,15,0.0419921875,0.9697265625,0.45361328125,78.857421875,-0.9765625,176.33056640625,-563.3279556014455,301.84556588080073,-272.8052708954901,1745594377.9196026
288,1,1,5,576,15,0.02001953125,1.03369140625,0.4833984375,73.3642578125,11.41357421875,188.1103515625,-594.7623042505593,250.95185854414044,-296.87641429209725,1745594377.9264677
289,1,1,5,591,15,-0.04541015625,1.09228515625,0.44482421875,66.10107421875,21.97265625,197.509765625,-600.7497992313428,238.97686858257327,-305.9030930658249,1745594377.9329178
290,1,1,5,606,15,-0.115234375,1.1181640625,0.38916015625,57.7392578125,28.9306640625,204.833984375,-621.7060316640853,192.57378248150061,-326.9653435378562,1745594377.9395528
291,1,1,5,621,15,-0.18603515625,1.16357421875,0.34619140625,49.01123046875,33.87451171875,208.984375,-609.7310417025183,162.63630757758276,-325.4608970755682,1745594377.949926
292,1,1,5,636,15,-0.2197265625,1.23486328125,0.31201171875,42.1142578125,39.55078125,210.0830078125,-642.6622640968278,102.76135776974702,-361.5676121704789,1745594377.9563904
293,1,1,5,651,15,-0.3076171875,1.3046875,0.2666015625,34.97314453125,54.74853515625,207.94677734375,-642.6622640968278,74.32075661102506,-361.5676121704789,1745594377.962808
294,1,1,5,666,15,-0.3935546875,1.40283203125,0.19482421875,30.21240234375,72.8759765625,197.75390625,-648.6497590776114,18.936428038777038,-376.6120767933584,1745594377.9753783
295,1,1,5,681,15,-0.6748046875,1.31689453125,0.0791015625,27.9541015625,97.5341796875,183.59375,-650.1466328228073,-15.491668100728502,-391.65654141623787,1745594377.9817877
296,1,1,5,696,15,-1.02001953125,1.20849609375,-0.01318359375,29.72412109375,112.24365234375,163.9404296875,-633.6810216256525,-72.37287041817243,-394.66543434081376,1745594377.9882338
297,1,1,5,711,15,-1.30908203125,1.15234375,0.01025390625,28.38134765625,93.68896484375,138.427734375,-636.6747691160442,-111.29158779326563,-405.1965595768294,1745594377.994681
298,1,1,5,726,15,-1.47802734375,1.00439453125,0.10986328125,26.85546875,50.96435546875,110.595703125,-642.6622640968278,-145.71968393277118,-412.7187918882691,1745594378.006506
299,1,1,5,741,15,-1.517578125,0.78759765625,0.23779296875,26.123046875,1.64794921875,83.251953125,-621.7060316640853,-160.6884213847301,-409.7098989636932,1745594378.0129285
300,1,1,5,756,15,-1.3798828125,0.49658203125,0.35400390625,24.35302734375,-29.4189453125,62.80517578125,-605.2404204669306,-183.1415275626685,-400.68322018996554,1745594378.0193806
301,1,1,5,771,15,-1.13818359375,0.236328125,0.470703125,22.15576171875,-33.87451171875,51.025390625,-632.1841478804566,-192.12277003384384,-406.7010060391173,1745594378.0258186
302,1,1,5,786,15,-1.75439453125,0.0947265625,-1.119140625,12.3291015625,-3.23486328125,45.95947265625,-596.2591779957551,-199.60713875982333,-412.7187918882691,1745594378.0326679
303,1,1,5,801,15,-8.138671875,2.19287109375,-0.67626953125,22.88818359375,53.8330078125,-58.53271484375,-605.2404204669306,-205.59463374060687,-421.74547066199676,1745594378.0391207
304,1,1,5,816,15,1.82861328125,3.31396484375,0.82568359375,-79.58984375,-138.24462890625,-180.2978515625,-612.7247891929101,-201.1040125050192,-435.2854888225883,1745594378.0455928
305,1,1,5,831,15,2.103515625,1.3017578125,-0.0234375,-38.63525390625,51.81884765625,-23.13232421875,-609.7310417025183,-165.1790426203178,-411.21434542598115,1745594378.0521142
306,1,1,5,846,15,-0.787109375,1.00341796875,0.18701171875,2.01416015625,148.62060546875,-89.66064453125,-614.221662938106,-199.60713875982333,-412.7187918882691,1745594378.0586066
307,1,1,5,861,15,-0.27587890625,0.32275390625,0.03564453125,0.1220703125,61.58447265625,-124.755859375,-626.196652899673,-169.66966385590547,-405.1965595768294,1745594378.06505
308,1,1,5,876,15,-0.49072265625,0.89599609375,0.00439453125,-12.02392578125,30.21240234375,-104.00390625,-626.196652899673,-169.66966385590547,-421.74547066199676,1745594378.0714855
309,1,1,5,891,15,-0.06396484375,1.18701171875,0.046875,-10.92529296875,26.18408203125,-90.27099609375,-624.6997791544771,-166.6759163655137,-409.7098989636932,1745594378.0779362
310,1,1,5,906,15,-0.1796875,1.09716796875,-0.01025390625,-7.50732421875,30.76171875,-77.45361328125,-621.7060316640853,-163.68216887512187,-417.23213127513293,1745594378.084353
311,1,1,5,921,15,-0.2216796875,1.08740234375,-0.06689453125,-9.8876953125,12.51220703125,-71.10595703125,-626.196652899673,-144.22281018757528,-424.7543635865727,1745594378.0908089
312,1,1,5,936,15,-0.193359375,0.966796875,-0.04638671875,-13.48876953125,-18.9208984375,-75.68359375,-624.6997791544771,-145.71968393277118,-417.23213127513293,1745594378.09727
313,1,1,5,951,15,-0.111328125,0.92333984375,0.03515625,-12.87841796875,-15.625,-72.93701171875,-620.2091579188894,-129.25407273561638,-411.21434542598115,1745594378.1037107
314,1,1,5,966,15,-0.216796875,1.03271484375,0.09326171875,-8.85009765625,2.44140625,-67.138671875,-632.1841478804566,-142.72593644237938,-402.1876666522535,1745594378.1262355
315,1,1,5,981,15,-0.24609375,0.99267578125,0.06787109375,-7.26318359375,5.859375,-60.24169921875,-623.2029054092812,-126.26032524522458,-400.68322018996554,1745594378.1326847
316,1,1,5,996,15,-0.2412109375,1.01611328125,0.00732421875,-6.9580078125,-1.64794921875,-58.10546875,-635.1778953708483,-114.28533528365743,-420.2410241997088,1745594378.1391332
317,1,1,6,11,15,-0.26806640625,1.0732421875,0.03857421875,-7.4462890625,-10.19287109375,-58.41064453125,-626.196652899673,-111.29158779326563,-411.21434542598115,1745594378.1455784
318,1,1,6,26,15,-0.220703125,1.009765625,0.03857421875,-5.9814453125,-12.8173828125,-55.5419921875,-626.196652899673,-97.81972408650262,-411.21434542598115,1745594378.152082
319,1,1,6,41,15,-0.28125,1.0859375,0.04541015625,-6.16455078125,-19.775390625,-53.77197265625,-635.1778953708483,-84.34786037973959,-417.23213127513293,1745594378.1585445
320,1,1,6,56,15,-0.2568359375,0.94189453125,0.0625,-6.2255859375,-26.85546875,-52.42919921875,-624.6997791544771,-78.360365398956,-406.7010060391173,1745594378.1962926
321,1,1,6,71,15,-0.33984375,0.9931640625,0.091796875,-6.16455078125,-29.1748046875,-53.16162109375,-612.7247891929101,-82.85098663454367,-390.15209495394987,1745594378.2027476
322,1,1,6,86,15,-0.26318359375,1.00732421875,0.03466796875,-6.4697265625,-27.52685546875,-53.03955078125,-612.7247891929101,-69.37912292778066,-414.22323835055704,1745594378.20941
323,1,1,6,101,15,-0.33447265625,1.04833984375,0.0234375,-6.9580078125,-24.90234375,-55.17578125,-620.2091579188894,-48.422890495038146,-418.7365777374209,1745594378.215879
324,1,1,6,116,15,-0.3232421875,1.17578125,-0.00634765625,-8.7890625,-28.86962890625,-61.95068359375,-632.1841478804566,-51.41663798542993,-399.1787737276776,1745594378.2223656
325,1,1,6,131,15,-0.1630859375,1.12158203125,-0.00146484375,-11.1083984375,-26.611328125,-67.93212890625,-611.2279154477142,-46.926016749842255,-399.1787737276776,1745594378.229242
326,1,1,6,146,15,-0.3076171875,1.10107421875,-0.02392578125,-11.41357421875,-25.08544921875,-78.79638671875,-620.2091579188894,-27.466658062295643,-397.6743272653896,1745594378.2357023
327,1,1,6,161,15,-0.27392578125,1.0009765625,-0.056640625,-14.404296875,-28.4423828125,-86.24267578125,-605.2404204669306,-12.497920610336719,-397.6743272653896,1745594378.2421205
328,1,1,6,176,15,-0.4267578125,1.208984375,-0.064453125,-18.37158203125,-30.33447265625,-91.85791015625,-611.2279154477142,-3.5166781391613586,-396.1698808031017,1745594378.2485604
329,1,1,6,191,15,-0.6630859375,1.7421875,-0.04833984375,-21.8505859375,-28.25927734375,-101.62353515625,-603.7435467217347,-11.001046865140825,-391.65654141623787,1745594378.254979
330,1,1,6,206,15,0.181640625,1.83349609375,0.21435546875,-43.3349609375,-33.0810546875,-111.083984375,-611.2279154477142,17.439554293581136,-388.6476484916619,1745594378.2614331
331,1,1,6,221,15,-0.23486328125,1.9482421875,0.23583984375,-48.7060546875,0.54931640625,-126.5869140625,-609.7310417025183,18.936428038777038,-387.14320202937404,1745594378.30428
332,1,1,6,236,15,-0.28466796875,1.943359375,0.15869140625,-48.4619140625,3.2958984375,-140.19775390625,-606.7372942121265,45.8801554523031,-367.58539801963076,1745594378.3189104
333,1,1,6,251,15,0.05810546875,1.59228515625,-0.0234375,-50.29296875,4.150390625,-144.8974609375,-605.2404204669306,51.86765043308668,-373.6031838687825,1745594378.3691237
334,1,1,6,266,15,0.193359375,1.45654296875,-0.2919921875,-32.04345703125,26.7333984375,-140.07568359375,-585.7810617793839,71.32700912063329,-367.58539801963076,1745594378.375677
335,1,1,6,281,15,-0.05712890625,1.09326171875,-0.16796875,-20.5078125,40.52734375,-119.0185546875,-585.7810617793839,84.79887282739631,-364.5765050950548,1745594378.3988657
336,1,1,6,296,15,-0.61328125,0.8564453125,-0.1435546875,-8.85009765625,25.93994140625,-117.919921875,-578.2966930534044,95.27698904376757,-348.0275940098874,1745594378.4053361
337,1,1,6,311,15,-0.732421875,0.84228515625,-0.234375,0.0,-1.77001953125,-107.48291015625,-573.8060718178168,101.26448402455115,-349.5320404721753,1745594378.421952
338,1,1,6,326,15,0.037109375,0.67822265625,-0.28271484375,2.01416015625,-38.2080078125,-75.8056640625,-549.8560918946825,107.2519790053347,-343.5142546230236,1745594378.4288375
339,1,1,6,341,15,0.67822265625,0.57568359375,-0.12060546875,6.40869140625,-53.3447265625,-40.771484375,-584.284188034188,122.22071645729363,-352.54093339675126,1745594378.4354005
340,1,1,6,356,15,0.990234375,0.54296875,-0.23291015625,23.25439453125,-17.27294921875,8.9111328125,-537.8811019331152,98.27073653415934,-349.5320404721753,1745594378.4419544
341,1,1,6,371,15,0.41162109375,0.587890625,-0.27001953125,37.353515625,-13.00048828125,38.0859375,-545.3654706590947,111.74260024092237,-342.0098081607356,1745594378.448447
342,1,1,6,386,15,0.50244140625,0.67529296875,0.029296875,39.12353515625,-48.583984375,72.021484375,-527.4029857167441,90.78636780817989,-342.0098081607356,1745594378.4548724
343,1,1,6,401,15,0.5458984375,0.6669921875,0.0859375,44.49462890625,-42.41943359375,105.65185546875,-534.8873544427236,83.30199908220041,-370.5942909442066,1745594378.4613256
344,1,1,6,416,15,0.38232421875,0.7646484375,0.0927734375,50.537109375,-27.16064453125,138.18359375,-542.3717231687029,90.78636780817989,-352.54093339675126,1745594378.4677818
345,1,1,6,431,15,0.3037109375,0.90234375,0.1533203125,51.57470703125,-26.0009765625,164.9169921875,-558.8373343658578,75.81763035622096,-335.99202231158387,1745594378.4742117
346,1,1,6,446,15,0.1455078125,1.03515625,0.27392578125,51.8798828125,-30.94482421875,185.24169921875,-566.3217030918373,47.377029197499,-360.063165708191,1745594378.4806669
347,1,1,6,461,15,0.09326171875,1.10302734375,0.34716796875,50.537109375,-29.96826171875,199.8291015625,-545.3654706590947,36.898912981127744,-370.5942909442066,1745594378.4871237
348,1,1,6,476,15,-0.05078125,1.1767578125,0.39453125,46.9970703125,-25.390625,208.6181640625,-548.3592181494867,-2.019804393965471,-387.14320202937404,1745594378.4935465
349,1,1,6,491,15,-0.123046875,1.2080078125,0.38037109375,42.17529296875,-21.17919921875,214.599609375,-563.3279556014455,-27.466658062295643,-387.14320202937404,1745594378.5001686
350,1,1,6,506,15,-0.22314453125,1.2392578125,0.376953125,38.26904296875,-18.00537109375,217.6513671875,-557.3404606206619,-66.38537543738886,-382.62986264251015,1745594378.506664
351,1,1,6,521,15,-0.337890625,1.2685546875,0.4228515625,33.8134765625,-14.83154296875,217.22412109375,-557.3404606206619,-73.86974416336832,-399.1787737276776,1745594378.5130985
352,1,1,6,536,15,-0.40673828125,1.23486328125,0.4189453125,29.47998046875,-3.662109375,211.85302734375,-555.8435868754661,-105.30409281248207,-397.6743272653896,1745594378.5195591
353,1,1,6,551,15,-0.4833984375,1.17138671875,0.40380859375,26.85546875,15.869140625,203.30810546875,-548.3592181494867,-126.26032524522458,-414.22323835055704,1745594378.5264583
354,1,1,6,566,15,-0.568359375,1.13037109375,0.39404296875,23.86474609375,24.35302734375,194.15283203125,-537.8811019331152,-172.66341134629724,-400.68322018996554,1745594378.5329742
355,1,1,6,581,15,-0.83154296875,1.24853515625,0.4716796875,19.47021484375,10.498046875,177.6123046875,-518.4217432455688,-184.6384013078644,-409.7098989636932,1745594378.539434
356,1,1,6,596,15,-1.11767578125,1.14453125,0.4775390625,13.12255859375,-5.0048828125,160.46142578125,-516.9248695003729,-211.58212872139046,-414.22323835055704,1745594378.5458884
357,1,1,6,611,15,-1.6220703125,1.0859375,0.4296875,6.7138671875,-11.474609375,128.96728515625,-516.9248695003729,-234.03523489932883,-411.21434542598115,1745594378.5523136
358,1,1,6,626,15,-1.9912109375,0.8056640625,0.36865234375,-0.91552734375,-6.2255859375,92.59033203125,-506.4467532840016,-244.5133511157001,-418.7365777374209,1745594378.5588288
359,1,1,6,641,15,-1.93408203125,0.65087890625,0.3779296875,-8.544921875,-4.21142578125,49.37744140625,-486.987394596455,-263.9727098032467,-423.2499171242847,1745594378.5653095
360,1,1,6,656,15,-1.57861328125,0.359375,0.31298828125,-13.12255859375,4.0283203125,13.916015625,-491.4780158320427,-275.9476997648139,-424.7543635865727,1745594378.5717473
361,1,1,6,671,15,-1.13330078125,0.09375,0.208984375,-12.6953125,22.3388671875,-2.01416015625,-486.987394596455,-266.9664572936385,-412.7187918882691,1745594378.6597989
362,1,1,6,686,15,-0.78125,-0.1572265625,-0.400390625,-9.8876953125,72.509765625,3.662109375,-497.4655108128262,-274.450826019618,-409.7098989636932,1745594378.6662788
363,1,1,6,701,15,-3.6904296875,0.58056640625,-2.92724609375,52.001953125,237.12158203125,2.3193359375,-491.4780158320427,-316.36329088510297,-408.20545250140526,1745594378.6727126
364,1,1,6,716,15,2.7568359375,7.50439453125,2.65283203125,-142.333984375,-102.783203125,-302.1240234375,-503.4530057936098,-301.394553433144,-418.7365777374209,1745594378.679172
365,1,1,6,731,15,0.81640625,-0.6015625,0.1689453125,-51.7578125,63.3544921875,-25.45166015625,-504.9498795388057,-284.9289422359892,-420.2410241997088,1745594378.68565
366,1,1,6,746,15,-0.70068359375,0.93994140625,0.10498046875,8.72802734375,27.89306640625,-126.8310546875,-515.427995755177,-281.93519474559736,-406.7010060391173,1745594378.692093
367,1,1,6,761,15,-0.7333984375,-0.037109375,0.05419921875,-14.46533203125,49.62158203125,-112.9150390625,-513.9311220099811,-272.9539522744221,-390.15209495394987,1745594378.698569
368,1,1,6,776,15,-0.35791015625,1.17041015625,0.10107421875,-17.578125,-4.33349609375,-119.140625,-522.9123644811564,-271.4570785292262,-409.7098989636932,1745594378.706081
369,1,1,6,791,15,0.025390625,1.18212890625,0.271484375,-5.859375,17.76123046875,-93.81103515625,-530.3967332071359,-251.99771984167958,-408.20545250140526,1745594378.7125325
370,1,1,6,806,15,-0.23876953125,1.10595703125,0.1220703125,0.30517578125,24.96337890625,-86.60888671875,-530.3967332071359,-247.5070986060919,-405.1965595768294,1745594378.719006
371,1,1,6,821,15,-0.2216796875,1.08544921875,0.0263671875,1.46484375,0.9765625,-87.21923828125,-546.8623444042908,-231.04148740893706,-402.1876666522535,1745594378.7254694
372,1,1,6,836,15,-0.306640625,0.96435546875,0.04296875,-2.44140625,-27.34375,-89.599609375,-533.3904806975277,-238.52585613491652,-409.7098989636932,1745594378.7323148
373,1,1,6,851,15,0.0234375,1.19775390625,0.15576171875,-1.8310546875,-25.87890625,-91.552734375,-525.9061119715482,-220.56337119256582,-409.7098989636932,1745594378.7388177
374,1,1,6,866,15,-0.32080078125,1.115234375,0.1005859375,-3.35693359375,-0.06103515625,-83.43505859375,-533.3904806975277,-213.07900246658636,-396.1698808031017,1745594378.7452924
375,1,1,6,881,15,-0.35888671875,0.9287109375,-0.03076171875,-4.33349609375,-4.82177734375,-76.11083984375,-539.3779756783111,-210.08525497619456,-406.7010060391173,1745594378.751777
376,1,1,6,896,15,-0.330078125,0.9306640625,-0.02197265625,-11.8408203125,-9.94873046875,-70.556640625,-546.8623444042908,-202.6008862502151,-388.6476484916619,1745594378.7640574
377,1,1,6,911,15,-0.40673828125,0.90966796875,0.03515625,-15.380859375,-10.92529296875,-65.185546875,-537.8811019331152,-187.63214879825617,-418.7365777374209,1745594378.7705677
378,1,1,6,926,15,-0.3623046875,0.95947265625,0.06884765625,-19.6533203125,-12.63427734375,-59.63134765625,-533.3904806975277,-171.16653760110134,-406.7010060391173,1745594378.7878518
379,1,1,6,941,15,-0.42041015625,0.986328125,0.115234375,-19.83642578125,-16.29638671875,-55.72509765625,-545.3654706590947,-180.1477800722767,-387.14320202937404,1745594378.7942793
380,1,1,6,956,15,-0.36474609375,1.0439453125,0.134765625,-20.32470703125,-24.90234375,-54.13818359375,-542.3717231687029,-180.1477800722767,-411.21434542598115,1745594378.800732
381,1,1,6,971,15,-0.34033203125,1.10693359375,0.0595703125,-16.66259765625,-24.84130859375,-54.19921875,-548.3592181494867,-157.69467389433834,-394.66543434081376,1745594378.8073905
382,1,1,6,986,15,-0.3046875,1.05224609375,0.09423828125,-18.24951171875,-24.90234375,-55.35888671875,-545.3654706590947,-165.1790426203178,-394.66543434081376,1745594378.8138063
383,1,1,7,1,15,-0.2451171875,1.17236328125,0.087890625,-22.216796875,-25.146484375,-64.3310546875,-542.3717231687029,-144.22281018757528,-405.1965595768294,1745594378.8202872
384,1,1,7,16,15,-0.2548828125,1.1689453125,0.017578125,-26.7333984375,-19.83642578125,-74.76806640625,-548.3592181494867,-136.73844146159584,-408.20545250140526,1745594378.8334506
385,1,1,7,31,15,-0.4033203125,1.22802734375,-0.0556640625,-29.78515625,-20.1416015625,-85.0830078125,-555.8435868754661,-147.21655767796707,-394.66543434081376,1745594378.8399372
386,1,1,7,46,15,-0.3505859375,1.81005859375,0.06787109375,-33.447265625,-25.69580078125,-103.1494140625,-548.3592181494867,-123.26657775483278,-405.1965595768294,1745594378.8463984
387,1,1,7,61,15,-0.19921875,2.185546875,0.1259765625,-45.0439453125,-21.3623046875,-117.1875,-552.8498393850743,-108.29784030287387,-390.15209495394987,1745594378.8528214
388,1,1,7,76,15,-0.21044921875,2.2607421875,0.12451171875,-56.82373046875,8.30078125,-129.150390625,-558.8373343658578,-87.34160787013136,-397.6743272653896,1745594378.8594542
389,1,1,7,91,15,0.14208984375,2.046875,0.11669921875,-59.2041015625,43.212890625,-134.58251953125,-557.3404606206619,-81.35411288934777,-382.62986264251015,1745594378.8659
390,1,1,7,106,15,0.2080078125,1.45166015625,-0.10595703125,-54.01611328125,50.23193359375,-130.0048828125,-549.8560918946825,-66.38537543738886,-375.1076303310705,1745594378.8723383
391,1,1,7,121,15,-0.1806640625,1.1162109375,-0.2822265625,-43.39599609375,43.701171875,-133.23974609375,-557.3404606206619,-66.38537543738886,-378.1165232556463,1745594378.8787994
392,1,1,7,136,15,-0.56298828125,0.82421875,-0.36328125,-27.9541015625,23.0712890625,-117.1875,-554.3467131302702,-54.41038547582172,-361.5676121704789,1745594378.885252
393,1,1,7,151,15,-0.30419921875,0.78759765625,-0.42529296875,-12.939453125,-5.67626953125,-100.341796875,-542.3717231687029,-37.9447742786669,-363.07205863276687,1745594378.8916934
394,1,1,7,166,15,0.2265625,0.72509765625,-0.37158203125,-1.77001953125,-28.3203125,-69.2138671875,-542.3717231687029,-30.460405552687433,-363.07205863276687,1745594378.898145
395,1,1,7,181,15,1.28369140625,0.52783203125,-0.2861328125,13.7939453125,-6.2255859375,-28.99169921875,-524.4092382263523,-27.466658062295643,-352.54093339675126,1745594378.9045744
396,1,1,7,196,15,0.63720703125,0.61962890625,-0.65087890625,49.25537109375,82.09228515625,13.12255859375,-515.427995755177,-18.48541559112029,-358.55871924590303,1745594378.9110239
397,1,1,7,211,15,0.228515625,0.69140625,-0.3134765625,52.24609375,8.48388671875,50.72021484375,-515.427995755177,-51.41663798542993,-354.0453798590392,1745594379.6667988
398,1,1,7,226,15,0.45703125,0.72705078125,-0.04541015625,51.025390625,-58.65478515625,86.85302734375,-522.9123644811564,-51.41663798542993,-364.5765050950548,1745594379.673239
399,1,1,7,241,15,0.3916015625,0.6796875,0.1318359375,55.7861328125,-70.12939453125,118.65234375,-513.9311220099811,-64.88850169219297,-366.08095155734276,1745594379.679677
400,1,1,7,256,15,0.33349609375,0.7265625,0.21728515625,62.744140625,-62.92724609375,147.5830078125,-510.9373745195893,-57.4041329662135,-361.5676121704789,1745594379.6861157
401,1,1,7,271,15,0.2333984375,0.7744140625,0.27294921875,69.88525390625,-46.7529296875,170.41015625,-485.4905208512591,-58.901006711409394,-363.07205863276687,1745594379.692538
402,1,1,7,286,15,0.14599609375,0.80859375,0.2939453125,73.91357421875,-32.470703125,191.2841796875,-486.987394596455,-73.86974416336832,-372.09873740649454,1745594379.6989965
403,1,1,7,301,15,-0.0185546875,0.9169921875,0.375,75.439453125,-26.4892578125,206.9091796875,-494.47176332243447,-96.3228503413067,-388.6476484916619,1745594379.71062
404,1,1,7,316,15,-0.22998046875,1.009765625,0.390625,74.03564453125,-13.18359375,214.41650390625,-469.02490965410425,-102.31034532209028,-399.1787737276776,1745594379.7171526
405,1,1,7,331,15,-0.50927734375,1.0859375,0.46533203125,71.4111328125,18.24951171875,214.35546875,-458.546793437733,-127.75719899042046,-385.6387555670861,1745594379.7647462
406,1,1,7,346,15,-0.93212890625,1.20068359375,0.49365234375,62.744140625,37.53662109375,201.7822265625,-436.09368725979465,-139.7321889519876,-384.13430910479815,1745594379.776433
407,1,1,7,361,15,-1.39892578125,1.2138671875,0.462890625,48.88916015625,33.14208984375,179.443359375,-439.0874347501864,-175.65715883668904,-384.13430910479815,1745594379.7828565
408,1,1,7,376,15,-1.81787109375,1.14697265625,0.47216796875,36.4990234375,16.7236328125,149.59716796875,-442.0811822405782,-175.65715883668904,-397.6743272653896,1745594379.7944164
409,1,1,7,391,15,-2.01123046875,1.01953125,0.47021484375,23.681640625,-13.85498046875,109.80224609375,-440.5843084953823,-213.07900246658636,-382.62986264251015,1745594379.8008955
410,1,1,7,406,15,-2.00537109375,0.84912109375,0.544921875,13.18359375,-42.724609375,68.78662109375,-433.09993976940285,-207.0915074858028,-391.65654141623787,1745594379.8075285
411,1,1,7,421,15,-1.53515625,0.51806640625,0.58349609375,0.06103515625,-48.4619140625,35.58349609375,-430.10619227901105,-217.56962370217403,-399.1787737276776,1745594379.8139627
412,1,1,7,436,15,-0.7109375,0.00341796875,0.60888671875,-7.26318359375,-8.11767578125,25.146484375,-412.1437073366603,-213.07900246658636,-396.1698808031017,1745594379.836177
413,1,1,7,451,15,-0.27783203125,-0.3310546875,0.54345703125,-4.57763671875,38.9404296875,39.794921875,-401.6655911202891,-220.56337119256582,-402.1876666522535,1745594379.8426344
414,1,1,7,466,15,-6.251953125,1.09814453125,0.3642578125,15.0146484375,94.8486328125,8.6669921875,-422.6218235530316,-225.0539924281535,-391.65654141623787,1745594379.8491163
415,1,1,7,481,15,0.4833984375,3.25146484375,1.4814453125,-90.576171875,-116.63818359375,-166.50390625,-421.1249498078357,-226.5508661733494,-394.66543434081376,1745594379.860884
416,1,1,7,496,15,2.27197265625,0.5556640625,-0.3505859375,-12.3291015625,60.6689453125,6.28662109375,-433.09993976940285,-228.0477399185453,-385.6387555670861,1745594379.8673682
417,1,1,7,511,15,-1.01123046875,2.23828125,0.2216796875,-15.93017578125,28.62548828125,-92.59033203125,-431.60306602420695,-208.5883812309987,-384.13430910479815,1745594379.8782825
418,1,1,7,526,15,0.13134765625,0.4404296875,0.130859375,-8.11767578125,-49.072265625,-65.73486328125,-440.5843084953823,-207.0915074858028,-382.62986264251015,1745594379.9062889
419,1,1,7,541,15,-0.59375,0.94921875,0.0859375,-0.30517578125,-1.77001953125,-80.50537109375,-431.60306602420695,-198.11026501462743,-387.14320202937404,1745594379.9600801
420,1,1,7,556,15,-0.22216796875,0.892578125,-0.04296875,-9.33837890625,-31.73828125,-77.7587890625,-437.5905610049905,-202.6008862502151,-382.62986264251015,1745594379.971758
421,1,1,7,571,15,-0.3037109375,0.966796875,0.0576171875,-7.50732421875,-15.869140625,-71.1669921875,-442.0811822405782,-201.1040125050192,-397.6743272653896,1745594379.9986784
422,1,1,7,586,15,-0.263671875,0.95947265625,-0.02783203125,-12.3291015625,-15.625,-69.4580078125,-439.0874347501864,-180.1477800722767,-390.15209495394987,1745594380.0051649
423,1,1,7,601,15,-0.20361328125,1.05615234375,0.05615234375,-17.4560546875,-7.75146484375,-70.61767578125,-442.0811822405782,-180.1477800722767,-390.15209495394987,1745594380.0115817
424,1,1,7,616,15,-0.2119140625,1.08154296875,0.04833984375,-23.4375,1.77001953125,-71.71630859375,-448.0686772213618,-174.16028509149314,-378.1165232556463,1745594380.09334
425,1,1,7,631,15,-0.39892578125,0.94384765625,0.05419921875,-25.2685546875,6.2255859375,-68.603515625,-443.5780559857741,-174.16028509149314,-378.1165232556463,1745594380.110629
426,1,1,7,646,15,-0.44970703125,0.92626953125,0.1328125,-29.11376953125,2.685546875,-65.12451171875,-449.5655509665577,-162.18529512992598,-387.14320202937404,1745594380.1171126
427,1,1,7,661,15,-0.38232421875,0.982421875,0.0859375,-32.958984375,-4.21142578125,-62.56103515625,-452.5592984569495,-162.18529512992598,-376.6120767933584,1745594380.1235418
428,1,1,7,676,15,-0.3544921875,1.02783203125,0.04296875,-34.72900390625,-7.568359375,-61.4013671875,-443.5780559857741,-163.68216887512187,-385.6387555670861,1745594380.1302292
429,1,1,7,691,15,-0.43115234375,0.93408203125,0.07373046875,-36.07177734375,-7.87353515625,-58.7158203125,-455.5530459473413,-148.71343142316294,-361.5676121704789,1745594380.1470933
430,1,1,7,706,15,-0.46826171875,0.900390625,0.099609375,-36.9873046875,-11.77978515625,-55.6640625,-461.5405409281248,-142.72593644237938,-375.1076303310705,1745594380.15352
431,1,1,7,721,15,-0.47021484375,0.8818359375,0.11474609375,-35.70556640625,-15.5029296875,-51.1474609375,-458.546793437733,-135.2415677163999,-367.58539801963076,1745594380.1599832
432,1,1,7,736,15,-0.41748046875,0.98291015625,0.13330078125,-34.60693359375,-18.12744140625,-49.1943359375,-466.03116216371245,-135.2415677163999,-364.5765050950548,1745594380.1664634
433,1,1,7,751,15,-0.35302734375,1.10693359375,0.14111328125,-33.38623046875,-21.484375,-53.3447265625,-470.52178339930015,-111.29158779326563,-370.5942909442066,1745594380.1728969
434,1,1,7,766,15,-0.4013671875,1.123046875,0.115234375,-33.3251953125,-18.49365234375,-59.99755859375,-475.01240463488784,-126.26032524522458,-370.5942909442066,1745594380.1793716
435,1,1,7,781,15,-0.40771484375,1.349609375,0.15087890625,-34.3017578125,-20.3857421875,-73.66943359375,-464.5342884185166,-111.29158779326563,-355.54982632132715,1745594380.1858263
436,1,1,7,796,15,-0.369140625,1.66162109375,0.15234375,-38.26904296875,-22.3388671875,-86.5478515625,-467.52803590890835,-100.81347157689439,-360.063165708191,1745594380.19226
437,1,1,7,811,15,-0.275390625,2.11083984375,0.271484375,-49.74365234375,-20.69091796875,-111.14501953125,-467.52803590890835,-93.32910285091494,-360.063165708191,1745594380.2318208
438,1,1,7,826,15,-0.16162109375,2.1162109375,0.208984375,-54.26025390625,6.04248046875,-128.0517578125,-475.01240463488784,-100.81347157689439,-342.0098081607356,1745594380.2383285
439,1,1,7,841,15,-0.06201171875,2.0927734375,0.171875,-53.22265625,28.6865234375,-145.20263671875,-461.5405409281248,-81.35411288934777,-340.50536169844764,1745594380.2447517
440,1,1,7,856,15,0.08642578125,1.6728515625,0.04833984375,-46.9970703125,43.27392578125,-142.9443359375,-472.01865714449605,-70.87599667297654,-332.9831293870079,1745594380.2512162
441,1,1,7,871,15,-0.11865234375,1.2197265625,-0.07568359375,-44.3115234375,29.6630859375,-151.42822265625,-475.01240463488784,-61.894754201801184,-342.0098081607356,1745594380.257993
442,1,1,7,886,15,-0.3896484375,0.94189453125,-0.205078125,-33.75244140625,20.01953125,-142.2119140625,-461.5405409281248,-63.39162794699707,-329.97423646243203,1745594380.2644284
443,1,1,7,901,15,-0.8603515625,0.80029296875,-0.2685546875,-19.47021484375,5.0048828125,-132.01904296875,-476.50927838008374,-46.926016749842255,-319.4431112264165,1745594380.2708964
444,1,1,7,916,15,-0.0634765625,0.77880859375,-0.30419921875,-18.798828125,-27.587890625,-108.82568359375,-460.0436671829289,-48.422890495038146,-335.99202231158387,1745594380.2833874
445,1,1,7,931,15,0.20556640625,0.55224609375,-0.30419921875,-8.72802734375,-27.2216796875,-78.79638671875,-446.5718034761659,-37.9447742786669,-317.93866476412853,1745594380.291486
446,1,1,7,946,15,0.9443359375,0.41943359375,-0.55859375,14.22119140625,23.4375,-29.23583984375,-449.5655509665577,-42.43539551425457,-317.93866476412853,1745594380.3102627
447,1,1,7,961,15,-0.04248046875,0.58642578125,-0.69580078125,35.64453125,43.15185546875,-6.53076171875,-448.0686772213618,-28.963531807491538,-326.9653435378562,1745594380.3235211
448,1,1,7,976,15,-0.0087890625,0.72509765625,-0.322265625,36.07177734375,-56.70166015625,25.81787109375,-443.5780559857741,-36.44790053347101,-326.9653435378562,1745594380.331699
449,1,1,7,991,15,0.16552734375,0.6064453125,-0.166015625,38.63525390625,-100.4638671875,54.50439453125,-442.0811822405782,-37.9447742786669,-314.9297718395526,1745594380.339787
450,1,1,8,6,15,0.068359375,0.68505859375,0.0126953125,48.2177734375,-94.90966796875,79.1015625,-436.09368725979465,-30.460405552687433,-328.46979000014414,1745594380.347866
451,1,1,8,21,15,0.072265625,0.75830078125,0.10986328125,59.08203125,-71.47216796875,98.388671875,-431.60306602420695,-45.429143004646356,-325.4608970755682,1745594380.361644
452,1,1,8,36,15,-0.0634765625,0.82470703125,0.1455078125,69.88525390625,-34.24072265625,116.27197265625,-433.09993976940285,-39.44164802386278,-319.4431112264165,1745594380.3697288
453,1,1,8,51,15,-0.17919921875,0.8642578125,0.14306640625,76.416015625,-6.103515625,132.080078125,-431.60306602420695,-45.429143004646356,-328.46979000014414,1745594380.3781998
454,1,1,8,66,15,-0.27490234375,0.9326171875,0.18603515625,77.45361328125,3.5400390625,146.54541015625,-428.60931853381516,-75.36661790856421,-325.4608970755682,1745594380.3853369
455,1,1,8,81,15,-0.34326171875,1.03271484375,0.341796875,73.6083984375,0.9765625,156.73828125,-428.60931853381516,-79.85723914415189,-335.99202231158387,1745594380.3924658
456,1,1,8,96,15,-0.3994140625,1.08984375,0.43212890625,65.36865234375,0.18310546875,163.0859375,-404.6593386106809,-96.3228503413067,-351.0364869344633,1745594380.3990874
457,1,1,8,111,15,-0.43896484375,1.12939453125,0.4931640625,58.28857421875,11.29150390625,166.3818359375,-394.18122239430966,-99.3165978316985,-337.4964687738718,1745594380.421324
458,1,1,8,126,15,-0.5205078125,1.11572265625,0.5263671875,51.513671875,28.80859375,167.1142578125,-398.67184362989735,-124.76345150002867,-358.55871924590303,1745594380.4279475
459,1,1,8,141,15,-0.5576171875,1.0439453125,0.52880859375,43.9453125,46.142578125,167.05322265625,-394.18122239430966,-135.2415677163999,-351.0364869344633,1745594380.4343817
460,1,1,8,156,15,-0.71337890625,0.94384765625,0.59326171875,37.2314453125,56.33544921875,163.75732421875,-391.1874749039178,-153.20405265875064,-358.55871924590303,1745594380.4408576
461,1,1,8,171,15,-1.0087890625,0.70849609375,0.5703125,33.935546875,67.3828125,159.1796875,-379.2124849423507,-157.69467389433834,-355.54982632132715,1745594380.4473119
462,1,1,8,186,15,-1.30712890625,0.470703125,0.5830078125,35.400390625,70.068359375,153.1982421875,-370.23124247117534,-192.12277003384384,-351.0364869344633,1745594380.4537404
463,1,1,8,201,15,-1.5634765625,0.40625,0.6865234375,28.62548828125,69.2138671875,137.6953125,-377.71561119715483,-202.6008862502151,-364.5765050950548,1745594380.4711258
464,1,1,8,216,15,-1.7998046875,0.50439453125,0.7978515625,14.58740234375,78.91845703125,114.31884765625,-350.77188378362877,-216.07274995697813,-345.01870108531153,1745594380.4776323
465,1,1,8,231,15,-1.89404296875,0.359375,0.65380859375,7.14111328125,88.92822265625,89.9658203125,-349.27501003843287,-235.53210864452475,-364.5765050950548,1745594380.4840732
466,1,1,8,246,15,-1.83056640625,0.33935546875,0.62255859375,4.8828125,80.6884765625,70.98388671875,-346.28126254804107,-247.5070986060919,-360.063165708191,1745594380.4905374
467,1,1,8,261,15,-1.36181640625,0.28173828125,0.693359375,-1.64794921875,60.4248046875,57.4951171875,-334.3062725864739,-256.4883410772673,-354.0453798590392,1745594380.497011
468,1,1,8,276,15,-4.5849609375,0.7861328125,-0.4580078125,15.7470703125,87.46337890625,19.53125,-335.80314633166984,-257.98521482246315,-345.01870108531153,1745594380.8488488
469,1,1,8,291,15,-0.31591796875,2.64892578125,0.63720703125,-50.10986328125,-67.5048828125,-79.89501953125,-332.809398841278,-262.47583605805085,-360.063165708191,1745594380.8656368
470,1,1,8,306,15,2.6943359375,1.123046875,-0.037109375,-0.48828125,-6.2255859375,20.751953125,-343.2875150576493,-257.98521482246315,-352.54093339675126,1745594380.8727307
471,1,1,8,321,15,-1.05419921875,2.189453125,0.5087890625,-3.96728515625,10.25390625,-53.7109375,-332.809398841278,-251.99771984167958,-339.00091523615976,1745594380.8792272
472,1,1,8,336,15,0.27001953125,0.57861328125,0.009765625,10.009765625,-29.72412109375,-33.87451171875,-346.28126254804107,-269.9602047840303,-339.00091523615976,1745594380.9228811
473,1,1,8,351,15,-0.46435546875,0.6796875,0.00390625,11.71875,-5.79833984375,-46.08154296875,-343.2875150576493,-262.47583605805085,-342.0098081607356,1745594380.929592
474,1,1,8,366,15,-0.2451171875,1.017578125,-0.0595703125,0.54931640625,-17.63916015625,-53.7109375,-350.77188378362877,-244.5133511157001,-352.54093339675126,1745594380.9360366
475,1,1,8,381,15,-0.3486328125,0.95654296875,-0.18212890625,-4.638671875,-5.859375,-42.236328125,-343.2875150576493,-247.5070986060919,-352.54093339675126,1745594380.9424527
476,1,1,8,396,15,-0.29248046875,0.9833984375,-0.02197265625,-15.31982421875,-11.77978515625,-38.87939453125,-332.809398841278,-254.99146733207135,-342.0098081607356,1745594380.9540393
477,1,1,8,411,15,-0.21533203125,0.94921875,0.02197265625,-23.49853515625,-6.34765625,-39.12353515625,-341.7906413124534,-243.01647737050422,-343.5142546230236,1745594380.960496
478,1,1,8,426,15,-0.18994140625,1.015625,0.06103515625,-26.3671875,2.13623046875,-42.236328125,-349.27501003843287,-246.010224860896,-329.97423646243203,1745594380.9670699
479,1,1,8,441,15,-0.19580078125,1.06640625,0.05224609375,-26.4892578125,5.55419921875,-45.83740234375,-352.2687575288246,-243.01647737050422,-348.0275940098874,1745594380.9735217
480,1,1,8,456,15,-0.2607421875,1.060546875,0.13037109375,-26.3671875,0.91552734375,-47.79052734375,-340.29376756725753,-240.02272988011242,-339.00091523615976,1745594380.9799826
481,1,1,8,471,15,-0.26904296875,1.01953125,0.07080078125,-27.16064453125,-0.732421875,-49.9267578125,-346.28126254804107,-226.5508661733494,-342.0098081607356,1745594380.986457
482,1,1,8,486,15,-0.27978515625,0.94189453125,0.01611328125,-27.28271484375,-1.77001953125,-51.57470703125,-356.7593787644123,-229.54461366374116,-331.47868292472,1745594380.9928796
483,1,1,8,501,15,-0.30908203125,0.9306640625,0.0986328125,-27.52685546875,-7.26318359375,-53.3447265625,-352.2687575288246,-228.0477399185453,-337.4964687738718,1745594380.9993217
484,1,1,8,516,15,-0.478515625,0.8564453125,0.13671875,-27.099609375,-7.9345703125,-49.31640625,-353.7656312740205,-219.06649744736993,-339.00091523615976,1745594381.005751
485,1,1,8,531,15,-0.43603515625,0.9189453125,0.1494140625,-27.03857421875,-13.0615234375,-45.22705078125,-364.2437474903918,-237.02898238972065,-342.0098081607356,1745594381.0122576
486,1,1,8,546,15,-0.3662109375,0.98779296875,0.138671875,-26.0009765625,-14.34326171875,-41.68701171875,-379.2124849423507,-226.5508661733494,-328.46979000014414,1745594381.078799
487,1,1,8,561,15,-0.35107421875,1.056640625,0.08154296875,-25.81787109375,-13.0615234375,-41.44287109375,-379.2124849423507,-240.02272988011242,-339.00091523615976,1745594381.1543927
488,1,1,8,576,15,-0.33984375,1.05322265625,0.10595703125,-25.390625,-16.357421875,-44.677734375,-377.71561119715483,-210.08525497619456,-329.97423646243203,1745594381.1660442
489,1,1,8,591,15,-0.31689453125,1.08203125,0.1162109375,-28.74755859375,-18.798828125,-53.3447265625,-379.2124849423507,-216.07274995697813,-335.99202231158387,1745594381.172462
490,1,1,8,606,15,-0.3330078125,1.27099609375,0.13671875,-34.36279296875,-18.24951171875,-65.97900390625,-377.71561119715483,-217.56962370217403,-326.9653435378562,1745594381.178903
491,1,1,8,621,15,-0.1953125,1.4873046875,0.04052734375,-41.44287109375,-18.6767578125,-81.4208984375,-377.71561119715483,-213.07900246658636,-340.50536169844764,1745594381.1853456
492,1,1,8,636,15,-0.099609375,1.96435546875,0.0966796875,-45.0439453125,-2.62451171875,-103.82080078125,-382.20623243274247,-201.1040125050192,-339.00091523615976,1745594381.1917508
493,1,1,8,651,15,-0.0126953125,2.1015625,0.119140625,-48.15673828125,11.16943359375,-129.45556640625,-388.19372741352606,-199.60713875982333,-340.50536169844764,1745594381.198196
494,1,1,8,666,15,-0.08056640625,2.1435546875,0.12890625,-48.64501953125,14.404296875,-158.75244140625,-392.68434864911376,-187.63214879825617,-331.47868292472,1745594381.204823
495,1,1,8,681,15,0.20361328125,2.12451171875,0.0244140625,-48.828125,12.5732421875,-184.63134765625,-392.68434864911376,-187.63214879825617,-331.47868292472,1745594381.2112863
496,1,1,8,696,15,0.18603515625,1.7880859375,-0.12939453125,-50.1708984375,15.869140625,-196.59423828125,-394.18122239430966,-160.6884213847301,-323.95645061328025,1745594381.2177372
497,1,1,8,711,15,-0.1640625,1.474609375,-0.17578125,-41.80908203125,14.404296875,-195.86181640625,-413.6405810818562,-151.70717891355474,-325.4608970755682,1745594381.2241457
498,1,1,8,726,15,-0.89453125,1.1240234375,-0.232421875,-26.06201171875,-9.46044921875,-183.41064453125,-397.17496988470145,-139.7321889519876,-301.38975367896103,1745594381.2308235
499,1,1,8,741,15,0.03076171875,0.9658203125,-0.26220703125,-18.49365234375,-55.7861328125,-155.33447265625,-404.6593386106809,-142.72593644237938,-319.4431112264165,1745594381.2372882
500,1,1,8,756,15,0.51123046875,0.646484375,-0.2734375,-5.126953125,-43.0908203125,-114.80712890625,-397.17496988470145,-115.78220902885332,-325.4608970755682,1745594381.2436924
501,1,1,8,771,15,1.0888671875,0.45166015625,-0.5634765625,20.5078125,15.31982421875,-61.6455078125,-392.68434864911376,-115.78220902885332,-311.9208789149767,1745594381.2501726
502,1,1,8,786,15,0.234375,0.57080078125,-0.45361328125,41.9921875,27.03857421875,-24.71923828125,-394.18122239430966,-102.31034532209028,-319.4431112264165,1745594381.2566268
503,1,1,8,801,15,0.2490234375,0.59716796875,-0.2978515625,46.93603515625,-52.06298828125,17.02880859375,-365.7406212355877,-106.80096655767797,-313.42532537726464,1745594381.263052
504,1,1,8,816,15,0.31689453125,0.46923828125,-0.072265625,51.94091796875,-92.34619140625,53.5888671875,-370.23124247117534,-106.80096655767797,-308.9119859904008,1745594381.2694988
505,1,1,8,831,15,0.30859375,0.5205078125,0.09521484375,63.29345703125,-95.0927734375,89.05029296875,-377.71561119715483,-106.80096655767797,-316.43421830184053,1745594381.275954
506,1,1,8,846,15,0.2919921875,0.56689453125,0.25146484375,75.439453125,-72.32666015625,118.22509765625,-373.22498996156713,-91.83222910571904,-323.95645061328025,1745594381.2823734
507,1,1,8,861,15,0.11767578125,0.7099609375,0.248046875,88.19580078125,-31.06689453125,147.27783203125,-374.72186370676303,-100.81347157689439,-339.00091523615976,1745594381.2888186
508,1,1,8,876,15,-0.06201171875,0.82861328125,0.228515625,94.78759765625,4.2724609375,173.7060546875,-343.2875150576493,-118.77595651924511,-339.00091523615976,1745594381.295278
509,1,1,8,891,15,-0.34765625,0.95703125,0.21728515625,92.4072265625,10.68115234375,196.1669921875,-334.3062725864739,-114.28533528365743,-340.50536169844764,1745594381.3016973
510,1,1,8,906,15,-0.4521484375,1.07177734375,0.384765625,85.87646484375,-7.75146484375,208.49609375,-343.2875150576493,-126.26032524522458,-335.99202231158387,1745594381.3081517
511,1,1,8,921,15,-0.5380859375,1.14697265625,0.5595703125,79.65087890625,-6.9580078125,211.85302734375,-332.809398841278,-133.74469397120401,-349.5320404721753,1745594381.3145726
512,1,1,8,936,15,-0.56591796875,1.12939453125,0.59912109375,76.35498046875,27.40478515625,211.181640625,-316.3437876441232,-142.72593644237938,-354.0453798590392,1745594381.3264403
513,1,1,8,951,15,-0.75732421875,1.041015625,0.5146484375,72.81494140625,74.0966796875,205.9326171875,-314.8469138989273,-157.69467389433834,-352.54093339675126,1745594381.3328967
514,1,1,8,966,15,-0.92431640625,0.986328125,0.37109375,68.90869140625,100.09765625,200.01220703125,-287.90318648540125,-181.6446538174726,-361.5676121704789,1745594381.3393629
515,1,1,8,981,15,-1.22412109375,0.978515625,0.33642578125,59.50927734375,97.22900390625,192.5048828125,-278.92194401422586,-180.1477800722767,-345.01870108531153,1745594381.3458111
516,1,1,8,996,15,-1.36181640625,0.94140625,0.44873046875,45.2880859375,69.7021484375,178.64990234375,-262.4563328170711,-201.1040125050192,-355.54982632132715,1745594381.3522248
517,1,1,9,11,15,-1.43408203125,0.9091796875,0.58154296875,29.35791015625,46.38671875,157.1044921875,-256.4688378362875,-189.12902254345207,-364.5765050950548,1745594381.3586643
518,1,1,9,26,15,-1.39794921875,0.81201171875,0.46044921875,20.08056640625,44.25048828125,134.09423828125,-250.48134285550393,-201.1040125050192,-360.063165708191,1745594381.3655684
519,1,1,9,41,15,-1.38134765625,0.73193359375,0.44873046875,11.90185546875,53.8330078125,111.2060546875,-242.99697412952446,-207.0915074858028,-358.55871924590303,1745594381.371999
520,1,1,9,56,15,-1.14697265625,0.5712890625,0.4765625,6.591796875,55.23681640625,88.68408203125,-245.99072161991626,-235.53210864452475,-364.5765050950548,1745594381.3785207
521,1,1,9,71,15,-0.66162109375,0.380859375,0.572265625,9.1552734375,57.4951171875,67.5048828125,-235.512605403545,-217.56962370217403,-354.0453798590392,1745594381.38493
522,1,1,9,86,15,-2.0595703125,0.1123046875,-0.86669921875,16.05224609375,72.44873046875,56.7626953125,-223.53761544197786,-251.99771984167958,-352.54093339675126,1745594381.3913803
523,1,1,9,101,15,-5.966796875,2.6689453125,1.03369140625,-8.1787109375,29.96826171875,-110.9619140625,-219.0469942063902,-237.02898238972065,-363.07205863276687,1745594381.397844
524,1,1,9,116,15,2.95068359375,1.03759765625,0.2119140625,-36.56005859375,-207.03125,-57.31201171875,-231.02198416795733,-249.00397235128779,-361.5676121704789,1745594381.4042537
525,1,1,9,131,15,-0.04052734375,1.8486328125,-0.55859375,4.94384765625,66.5283203125,-45.5322265625,-229.5251104227614,-244.5133511157001,-370.5942909442066,1745594382.0831246
526,1,1,9,146,15,-0.74560546875,1.5048828125,0.53173828125,-0.9765625,8.11767578125,-67.3828125,-240.00322663913266,-234.03523489932883,-360.063165708191,1745594382.0899403
527,1,1,9,161,15,-0.267578125,0.5869140625,-0.0048828125,7.38525390625,-31.43310546875,-66.71142578125,-250.48134285550393,-219.06649744736993,-366.08095155734276,1745594382.096488
528,1,1,9,176,15,-0.119140625,0.91357421875,0.04150390625,3.96728515625,-15.625,-65.12451171875,-231.02198416795733,-235.53210864452475,-361.5676121704789,1745594382.1029212
529,1,1,9,191,15,-0.25048828125,1.08154296875,-0.01318359375,-1.40380859375,-10.986328125,-63.4765625,-235.512605403545,-231.04148740893706,-364.5765050950548,1745594382.1093888
530,1,1,9,206,15,-0.34521484375,1.0068359375,-0.00537109375,-2.74658203125,-6.53076171875,-53.64990234375,-245.99072161991626,-235.53210864452475,-375.1076303310705,1745594382.1158478
531,1,1,9,221,15,-0.35791015625,0.98046875,-0.1181640625,-7.14111328125,-10.68115234375,-41.8701171875,-223.53761544197786,-222.06024493776172,-370.5942909442066,1745594382.122275
532,1,1,9,236,15,-0.283203125,0.92236328125,-0.044921875,-15.5029296875,-13.18359375,-37.109375,-244.49384787472036,-219.06649744736993,-373.6031838687825,1745594382.1289697
533,1,1,9,251,15,-0.27197265625,1.01123046875,0.048828125,-19.34814453125,-12.87841796875,-34.912109375,-253.4750903458957,-210.08525497619456,-372.09873740649454,1745594382.1354477
534,1,1,9,266,15,-0.232421875,1.0693359375,0.0458984375,-20.3857421875,-7.01904296875,-29.96826171875,-240.00322663913266,-219.06649744736993,-366.08095155734276,1745594382.1418762
535,1,1,9,281,15,-0.33203125,1.0341796875,0.03955078125,-19.71435546875,-4.150390625,-23.98681640625,-247.48759536511216,-216.07274995697813,-373.6031838687825,1745594382.1483433
536,1,1,9,296,15,-0.333984375,0.9560546875,0.0517578125,-20.32470703125,-10.19287109375,-18.98193359375,-257.9657115814834,-234.03523489932883,-355.54982632132715,1745594382.1547809
537,1,1,9,311,15,-0.2744140625,0.9423828125,0.0400390625,-20.93505859375,-11.53564453125,-14.892578125,-257.9657115814834,-205.59463374060687,-360.063165708191,1745594382.161261
538,1,1,9,326,15,-0.279296875,0.9482421875,0.044921875,-20.3857421875,-9.82666015625,-12.451171875,-253.4750903458957,-202.6008862502151,-372.09873740649454,1745594382.1677213
539,1,1,9,341,15,-0.2685546875,0.9306640625,0.05859375,-20.56884765625,-11.04736328125,-11.53564453125,-265.4500803074629,-226.5508661733494,-370.5942909442066,1745594382.1741557
540,1,1,9,356,15,-0.26513671875,0.95263671875,0.03369140625,-21.54541015625,-11.474609375,-11.5966796875,-244.49384787472036,-201.1040125050192,-360.063165708191,1745594382.1807747
541,1,1,9,371,15,-0.22607421875,1.01416015625,0.01220703125,-22.03369140625,-13.3056640625,-14.0380859375,-259.4625853266793,-199.60713875982333,-361.5676121704789,1745594382.203157
542,1,1,9,386,15,-0.21728515625,1.01904296875,0.0849609375,-23.25439453125,-13.12255859375,-16.9677734375,-248.98446911030803,-202.6008862502151,-372.09873740649454,1745594382.2096763
543,1,1,9,401,15,-0.23095703125,0.9970703125,0.06787109375,-24.35302734375,-9.3994140625,-20.263671875,-265.4500803074629,-211.58212872139046,-366.08095155734276,1745594382.2161312
544,1,1,9,416,15,-0.24951171875,0.98779296875,0.08642578125,-20.8740234375,1.708984375,-20.20263671875,-256.4688378362875,-199.60713875982333,-364.5765050950548,1745594382.222542
545,1,1,9,431,15,-0.26513671875,0.91943359375,0.08984375,-22.39990234375,2.50244140625,-22.52197265625,-272.9344490334423,-208.5883812309987,-363.07205863276687,1745594382.2292202
546,1,1,9,446,15,-0.33740234375,0.8896484375,0.1015625,-23.62060546875,-1.953125,-23.98681640625,-259.4625853266793,-207.0915074858028,-364.5765050950548,1745594382.2356987
547,1,1,9,461,15,-0.37255859375,0.92724609375,0.14794921875,-24.71923828125,-8.60595703125,-22.88818359375,-277.42507026902996,-210.08525497619456,-364.5765050950548,1745594382.278398
548,1,1,9,476,15,-0.31982421875,0.94189453125,0.0615234375,-26.0009765625,-11.3525390625,-20.3857421875,-275.92819652383406,-201.1040125050192,-342.0098081607356,1745594382.2848418
549,1,1,9,491,15,-0.279296875,1.02392578125,0.083984375,-20.81298828125,3.60107421875,-16.78466796875,-284.90943899500945,-189.12902254345207,-364.5765050950548,1745594382.2913146
550,1,1,9,506,15,-0.31201171875,0.9677734375,0.1171875,-25.20751953125,-7.6904296875,-22.27783203125,-281.9156915046177,-202.6008862502151,-367.58539801963076,1745594382.308443
551,1,1,9,521,15,-0.259765625,0.9853515625,0.1630859375,-31.25,-18.6767578125,-31.25,-277.42507026902996,-217.56962370217403,-358.55871924590303,1745594382.314892
552,1,1,9,536,15,-0.13818359375,1.14892578125,0.13134765625,-40.283203125,-19.95849609375,-43.39599609375,-281.9156915046177,-199.60713875982333,-354.0453798590392,1745594382.3213854
553,1,1,9,551,15,-0.1650390625,1.34130859375,0.119140625,-48.03466796875,-10.986328125,-58.349609375,-293.8906814661848,-193.61964377903976,-363.07205863276687,1745594382.3281167
554,1,1,9,566,15,0.001953125,1.60205078125,0.041015625,-53.8330078125,-0.18310546875,-80.56640625,-283.4125652498136,-175.65715883668904,-355.54982632132715,1745594383.1434548
555,1,1,9,581,15,0.01220703125,1.8310546875,-0.02490234375,-60.791015625,17.27294921875,-102.5390625,-292.39380772098895,-184.6384013078644,-354.0453798590392,1745594383.2585323
556,1,1,9,596,15,-0.09130859375,2.00244140625,-0.0986328125,-65.185546875,15.0146484375,-129.2724609375,-301.3750501921643,-180.1477800722767,-360.063165708191,1745594383.2649856
557,1,1,9,611,15,0.16845703125,2.23876953125,-0.1650390625,-67.9931640625,3.5400390625,-162.53662109375,-310.3562926633397,-184.6384013078644,-361.5676121704789,1745594383.2714462
558,1,1,9,626,15,0.1376953125,2.09423828125,-0.1435546875,-67.7490234375,4.69970703125,-178.40576171875,-302.8719239373602,-181.6446538174726,-351.0364869344633,1745594383.2779243
559,1,1,9,641,15,-0.02294921875,1.9521484375,-0.04736328125,-71.22802734375,-23.37646484375,-188.90380859375,-323.82815637010265,-174.16028509149314,-361.5676121704789,1745594383.2843676
560,1,1,9,656,15,0.14794921875,1.71484375,-0.1044921875,-79.4677734375,-40.34423828125,-187.07275390625,-320.8344088797109,-166.6759163655137,-340.50536169844764,1745594383.2908413
561,1,1,9,671,15,0.017578125,1.43310546875,-0.12548828125,-71.22802734375,-32.40966796875,-176.6357421875,-320.8344088797109,-163.68216887512187,-348.0275940098874,1745594383.2973087
562,1,1,9,686,15,-0.1494140625,1.27880859375,-0.03271484375,-56.2744140625,4.8828125,-157.16552734375,-326.82190386049444,-156.19780014914244,-351.0364869344633,1745594383.303734
563,1,1,9,701,15,-0.25048828125,1.0390625,-0.2109375,-41.80908203125,23.01025390625,-133.9111328125,-320.8344088797109,-156.19780014914244,-351.0364869344633,1745594383.3102934
564,1,1,9,716,15,0.05908203125,0.80078125,-0.19482421875,-30.70068359375,32.04345703125,-90.33203125,-323.82815637010265,-138.23531520679174,-332.9831293870079,1745594383.322319
565,1,1,9,731,15,0.7490234375,0.58447265625,-0.2763671875,-5.7373046875,97.83935546875,-49.74365234375,-323.82815637010265,-138.23531520679174,-332.9831293870079,1745594383.3290744
566,1,1,9,746,15,0.1171875,0.37158203125,-0.65673828125,25.57373046875,132.568359375,-13.24462890625,-317.8406613893191,-144.22281018757528,-331.47868292472,1745594383.3355906
567,1,1,9,761,15,-0.4208984375,0.54443359375,-0.17236328125,25.2685546875,39.9169921875,12.20703125,-322.3312826249068,-157.69467389433834,-345.01870108531153,1745594383.3420148
568,1,1,9,776,15,-0.0400390625,0.61181640625,0.09814453125,21.8505859375,-29.296875,39.55078125,-316.3437876441232,-163.68216887512187,-343.5142546230236,1745594383.3484704
569,1,1,9,791,15,-0.03515625,0.50341796875,0.1533203125,30.09033203125,-9.82666015625,62.92724609375,-296.8844289565766,-169.66966385590547,-352.54093339675126,1745594383.8850095
570,1,1,9,806,15,-0.16015625,0.5537109375,0.1943359375,41.9921875,13.671875,86.3037109375,-310.3562926633397,-166.6759163655137,-332.9831293870079,1745594383.891507
571,1,1,9,821,15,-0.25341796875,0.5703125,0.212890625,51.025390625,30.517578125,103.759765625,-284.90943899500945,-166.6759163655137,-348.0275940098874,1745594383.89795
572,1,1,9,836,15,-0.380859375,0.5556640625,0.18505859375,55.23681640625,37.04833984375,120.78857421875,-269.9407015430505,-171.16653760110134,-351.0364869344633,1745594383.9043558
573,1,1,9,851,15,-0.482421875,0.5302734375,0.14599609375,57.18994140625,31.005859375,138.36669921875,-263.953206562267,-171.16653760110134,-358.55871924590303,1745594383.9108129
574,1,1,9,866,15,-0.41845703125,0.5302734375,0.18017578125,57.373046875,16.2353515625,152.28271484375,-257.9657115814834,-190.62589628864794,-349.5320404721753,1745594383.9173453
575,1,1,9,881,15,-0.31640625,0.56201171875,0.29248046875,56.57958984375,9.1552734375,161.43798828125,-240.00322663913266,-205.59463374060687,-363.07205863276687,1745594383.9237614
576,1,1,9,896,15,-0.2646484375,0.57177734375,0.3505859375,57.861328125,19.775390625,170.41015625,-217.5501204611943,-196.61339126943153,-351.0364869344633,1745594384.3618884
577,1,1,9,911,15,-0.18359375,0.59130859375,0.37841796875,60.546875,43.64013671875,180.5419921875,-219.0469942063902,-198.11026501462743,-349.5320404721753,1745594384.3687024
578,1,1,9,926,15,-0.25341796875,0.6494140625,0.35888671875,59.75341796875,73.18115234375,189.0869140625,-196.59388802845177,-210.08525497619456,-358.55871924590303,1745594384.4270308
579,1,1,9,941,15,-0.37353515625,0.70361328125,0.28955078125,53.77197265625,96.0693359375,196.8994140625,-159.17204439855445,-240.02272988011242,-335.99202231158387,1745594384.4334521
580,1,1,9,956,15,-0.4697265625,0.7783203125,0.193359375,44.98291015625,107.97119140625,204.1015625,-163.66266563414214,-246.010224860896,-337.4964687738718,1745594384.4398942
581,1,1,9,971,15,-0.630859375,0.85888671875,0.1328125,36.1328125,101.74560546875,210.14404296875,-120.25332702346124,-269.9602047840303,-345.01870108531153,1745594384.4988165
582,1,1,9,986,15,-0.783203125,0.9677734375,0.18798828125,26.9775390625,77.69775390625,208.55712890625,-123.24707451385304,-247.5070986060919,-335.99202231158387,1745594384.5155811
583,1,1,10,1,15,-0.9140625,1.04443359375,0.24072265625,18.310546875,45.10498046875,199.15771484375,-109.77521080709,-251.99771984167958,-345.01870108531153,1745594384.5716033
584,1,1,10,16,15,-0.94921875,1.078125,0.24658203125,13.916015625,9.27734375,186.8896484375,-99.29709459071874,-257.98521482246315,-335.99202231158387,1745594384.5780768
585,1,1,10,31,15,-0.87451171875,1.1240234375,0.2548828125,11.3525390625,-24.84130859375,176.1474609375,-79.83773590317215,-246.010224860896,-337.4964687738718,1745594384.5844872
586,1,1,10,46,15,-0.75439453125,1.17626953125,0.32373046875,8.9111328125,-55.84716796875,162.04833984375,-61.87525096082143,-256.4883410772673,-340.50536169844764,1745594384.5909123
587,1,1,10,61,15,-0.75390625,1.22119140625,0.35498046875,8.60595703125,-56.884765625,143.98193359375,-63.37212470601732,-229.54461366374116,-331.47868292472,1745594384.5973697
588,1,1,10,76,15,-0.80859375,1.25146484375,0.36474609375,9.521484375,-38.63525390625,118.7744140625,-61.87525096082143,-235.53210864452475,-340.50536169844764,1745594384.6129997
589,1,1,10,91,15,-0.89892578125,1.08837890625,0.31298828125,6.8359375,-1.15966796875,92.83447265625,-37.925271037687146,-222.06024493776172,-331.47868292472,1745594384.6195433
590,1,1,10,106,15,-0.927734375,1.048828125,0.29248046875,4.45556640625,31.43310546875,65.97900390625,-31.937776056903573,-229.54461366374116,-331.47868292472,1745594384.7173905
591,1,1,10,121,15,-0.95458984375,0.97314453125,0.2001953125,3.35693359375,46.630859375,39.97802734375,-18.465912350140538,-210.08525497619456,-323.95645061328025,1745594384.7238498
592,1,1,10,136,15,-0.98388671875,0.90283203125,0.05517578125,5.06591796875,52.91748046875,18.61572265625,-30.44090231170768,-217.56962370217403,-337.4964687738718,1745594384.7305133
593,1,1,10,151,15,-2.6591796875,0.71435546875,-1.1796875,28.13720703125,86.9140625,7.01904296875,-24.45340733092411,-219.06649744736993,-325.4608970755682,1745594384.7370148
594,1,1,10,166,15,-1.78369140625,3.25439453125,1.40478515625,-73.79150390625,-49.31640625,-175.72021484375,-30.44090231170768,-220.56337119256582,-329.97423646243203,1745594384.7434466
595,1,1,10,181,15,2.4052734375,1.13330078125,-0.02587890625,-22.15576171875,-180.48095703125,-28.076171875,-27.44715482131589,-226.5508661733494,-345.01870108531153,1745594384.7499094
596,1,1,10,196,15,0.0625,1.201171875,0.236328125,-11.04736328125,31.25,-60.97412109375,-4.994048643377503,-219.06649744736993,-349.5320404721753,1745594384.7563727
597,1,1,10,211,15,-0.18359375,1.3779296875,0.076171875,4.2724609375,31.005859375,-79.833984375,-30.44090231170768,-213.07900246658636,-361.5676121704789,1745594384.762791
598,1,1,10,226,15,-0.21142578125,0.51318359375,-0.111328125,4.0283203125,9.1552734375,-68.90869140625,-21.45965984053232,-222.06024493776172,-345.01870108531153,1745594384.7692416
599,1,1,10,241,15,-0.22314453125,0.9912109375,0.1298828125,6.9580078125,19.04296875,-61.5234375,-22.956533585728216,-228.0477399185453,-332.9831293870079,1745594384.7758353
600,1,1,10,256,15,-0.21533203125,1.09130859375,0.06298828125,-0.30517578125,9.09423828125,-53.40576171875,-31.937776056903573,-222.06024493776172,-342.0098081607356,1745594384.7824283
601,1,1,10,271,15,-0.208984375,1.150390625,-0.021484375,5.2490234375,9.8876953125,-38.0859375,-33.434649802099464,-231.04148740893706,-340.50536169844764,1745594384.7890172
602,1,1,10,286,15,-0.1884765625,1.09033203125,-0.02783203125,3.7841796875,-2.50244140625,-30.029296875,-33.434649802099464,-235.53210864452475,-332.9831293870079,1745594384.8071923
603,1,1,10,301,15,-0.1533203125,1.07470703125,-0.01953125,0.244140625,-6.16455078125,-24.0478515625,-15.472164859748752,-228.0477399185453,-337.4964687738718,1745594384.8136425
604,1,1,10,316,15,-0.1787109375,1.0400390625,-0.02392578125,-0.9765625,-4.08935546875,-15.0146484375,-18.465912350140538,-231.04148740893706,-332.9831293870079,1745594384.8201146
605,1,1,10,331,15,-0.18359375,0.98046875,-0.04443359375,-1.708984375,-4.82177734375,-5.06591796875,-31.937776056903573,-247.5070986060919,-335.99202231158387,1745594384.8266127
606,1,1,10,346,15,-0.16845703125,0.99755859375,-0.013671875,-3.84521484375,-9.33837890625,1.953125,-22.956533585728216,-235.53210864452475,-326.9653435378562,1745594384.833057
607,1,1,10,361,15,-0.1279296875,1.0302734375,0.017578125,-3.96728515625,-10.68115234375,5.37109375,-31.937776056903573,-247.5070986060919,-339.00091523615976,1745594384.8977067
608,1,1,10,376,15,-0.0986328125,1.1376953125,0.0361328125,-3.72314453125,-18.6767578125,2.86865234375,-18.465912350140538,-231.04148740893706,-337.4964687738718,1745594384.9375658
609,1,1,10,391,15,-0.01416015625,1.01513671875,-0.00244140625,-2.197265625,-17.822265625,5.37109375,-30.44090231170768,-243.01647737050422,-351.0364869344633,1745594384.9434645
610,1,1,10,406,15,-0.0390625,1.00146484375,-0.068359375,-3.84521484375,-18.310546875,2.3193359375,-25.950281076120003,-231.04148740893706,-340.50536169844764,1745594384.9505098
611,1,1,10,421,15,0.00341796875,0.98974609375,-0.09228515625,-8.056640625,-19.34814453125,-2.9296875,-34.931523547295356,-234.03523489932883,-345.01870108531153,1745594384.9624717
612,1,1,10,436,15,0.02392578125,1.0068359375,-0.10107421875,-10.92529296875,-9.033203125,-8.23974609375,-16.969038604944643,-237.02898238972065,-342.0098081607356,1745594384.9689484
613,1,1,10,451,15,0.068359375,1.0498046875,-0.07958984375,-12.75634765625,8.23974609375,-14.09912109375,-27.44715482131589,-219.06649744736993,-335.99202231158387,1745594384.9754136
614,1,1,10,466,15,0.09619140625,1.11767578125,-0.13134765625,-15.7470703125,20.5078125,-24.23095703125,-42.41589227327482,-211.58212872139046,-335.99202231158387,1745594384.9818313
615,1,1,10,481,15,0.03564453125,1.13134765625,-0.0361328125,-21.240234375,20.8740234375,-36.31591796875,-37.925271037687146,-229.54461366374116,-320.94755768870436,1745594384.9934385
616,1,1,10,496,15,0.1640625,1.2158203125,0.00048828125,-25.634765625,8.056640625,-55.48095703125,-33.434649802099464,-225.0539924281535,-337.4964687738718,1745594385.0270848
617,1,1,10,511,15,0.1279296875,1.5087890625,0.025390625,-35.82763671875,13.48876953125,-75.37841796875,-40.91901852807893,-231.04148740893706,-337.4964687738718,1745594385.033525
618,1,1,10,526,15,0.28515625,1.87890625,0.16455078125,-53.77197265625,23.37646484375,-100.64697265625,-51.39713474445018,-235.53210864452475,-332.9831293870079,1745594385.039983
619,1,1,10,541,15,0.39111328125,1.53125,0.03125,-48.583984375,40.283203125,-108.45947265625,-61.87525096082143,-246.010224860896,-343.5142546230236,1745594385.0464313
620,1,1,10,556,15,0.26806640625,1.5791015625,-0.0546875,-48.03466796875,47.2412109375,-131.40869140625,-51.39713474445018,-246.010224860896,-343.5142546230236,1745594385.0528688
621,1,1,10,571,15,0.20361328125,1.39892578125,-0.0859375,-46.0205078125,46.20361328125,-142.333984375,-55.88775598003785,-251.99771984167958,-331.47868292472,1745594385.0758638
622,1,1,10,586,15,-0.15283203125,1.31982421875,-0.1611328125,-41.3818359375,51.45263671875,-146.3623046875,-55.88775598003785,-247.5070986060919,-345.01870108531153,1745594385.082318
623,1,1,10,601,15,-0.39404296875,1.208984375,-0.20361328125,-34.97314453125,30.21240234375,-147.0947265625,-72.35336717719268,-266.9664572936385,-337.4964687738718,1745594385.0888069
624,1,1,10,616,15,0.1044921875,1.07568359375,-0.11279296875,-32.5927734375,-4.57763671875,-135.009765625,-66.36587219640911,-257.98521482246315,-335.99202231158387,1745594385.095247
625,1,1,10,631,15,0.4892578125,0.70458984375,-0.09814453125,-26.123046875,-18.9208984375,-108.09326171875,-73.85024092238858,-275.9476997648139,-331.47868292472,1745594385.1267614
626,1,1,10,646,15,0.70458984375,0.5458984375,-0.1240234375,-18.12744140625,-25.69580078125,-72.20458984375,-94.80647335513108,-244.5133511157001,-328.46979000014414,1745594385.1332283
627,1,1,10,661,15,0.6552734375,0.49755859375,-0.1015625,-6.53076171875,-25.45166015625,-35.5224609375,-84.32835713875981,-262.47583605805085,-317.93866476412853,1745594385.1397064
628,1,1,10,676,15,0.67333984375,0.4248046875,-0.1171875,0.6103515625,-24.23095703125,-0.244140625,-99.29709459071874,-272.9539522744221,-328.46979000014414,1745594385.1461382
629,1,1,10,691,15,0.6064453125,0.3779296875,-0.111328125,9.58251953125,-21.8505859375,34.85107421875,-88.81897837434751,-254.99146733207135,-320.94755768870436,1745594385.1525543
630,1,1,10,706,15,0.52294921875,0.44140625,-0.041015625,15.56396484375,-22.94921875,67.56591796875,-72.35336717719268,-235.53210864452475,-323.95645061328025,1745594385.1589994
631,1,1,10,721,15,0.4306640625,0.54345703125,0.00146484375,20.44677734375,-24.59716796875,94.54345703125,-70.85649343199678,-247.5070986060919,-339.00091523615976,1745594385.1654627
632,1,1,10,736,15,0.29296875,0.69482421875,0.06298828125,23.92578125,-17.51708984375,115.478515625,-61.87525096082143,-246.010224860896,-329.97423646243203,1745594385.171884
633,1,1,10,751,15,0.15869140625,0.828125,0.0791015625,27.2216796875,-4.5166015625,130.615234375,-54.39088223484197,-231.04148740893706,-323.95645061328025,1745594385.1783347
634,1,1,10,766,15,0.0107421875,0.94091796875,0.06494140625,29.6630859375,9.765625,140.80810546875,-33.434649802099464,-220.56337119256582,-326.9653435378562,1745594385.2129612
635,1,1,10,781,15,-0.1318359375,1.04052734375,0.06884765625,28.74755859375,21.42333984375,146.78955078125,-16.969038604944643,-216.07274995697813,-339.00091523615976,1745594385.2194507
636,1,1,10,796,15,-0.29248046875,1.205078125,0.1162109375,26.123046875,30.1513671875,147.0947265625,12.968436298973211,-208.5883812309987,-325.4608970755682,1745594385.225895
637,1,1,10,811,15,-0.388671875,1.29638671875,0.16845703125,22.0947265625,39.306640625,142.7001953125,12.968436298973211,-193.61964377903976,-320.94755768870436,1745594385.232362
638,1,1,10,826,15,-0.46826171875,1.31640625,0.19970703125,17.27294921875,45.59326171875,134.21630859375,30.930921241323926,-187.63214879825617,-320.94755768870436,1745594385.2388198
639,1,1,10,841,15,-0.53173828125,1.31005859375,0.2138671875,12.39013671875,45.166015625,122.6806640625,53.38402741926232,-171.16653760110134,-308.9119859904008,1745594385.2506034
640,1,1,10,856,15,-0.60400390625,1.2548828125,0.19091796875,8.6669921875,47.607421875,108.642578125,68.35276487122125,-160.6884213847301,-319.4431112264165,1745594385.2570705
641,1,1,10,871,15,-0.634765625,1.18359375,0.16015625,7.87353515625,48.76708984375,94.8486328125,81.82462857798427,-145.71968393277118,-329.97423646243203,1745594385.263489
642,1,1,10,886,15,-0.64111328125,1.13916015625,0.15478515625,8.4228515625,45.83740234375,82.45849609375,89.30899730396375,-138.23531520679174,-319.4431112264165,1745594385.2699378
643,1,1,10,901,15,-0.5830078125,1.0458984375,0.1171875,10.009765625,38.2080078125,73.91357421875,89.30899730396375,-135.2415677163999,-316.43421830184053,1745594385.276501
644,1,1,10,916,15,-0.8173828125,1.06103515625,0.1474609375,8.6669921875,33.8134765625,65.4296875,96.79336602994321,-127.75719899042046,-298.3808607543852,1745594385.2829235
645,1,1,10,931,15,-1.384765625,1.1103515625,0.0771484375,5.7373046875,31.18896484375,44.61669921875,90.80587104915965,-111.29158779326563,-304.398646603537,1745594385.2895513
646,1,1,10,946,15,-2.22119140625,1.22412109375,0.04638671875,6.103515625,16.9677734375,-0.18310546875,99.787113520335,-96.3228503413067,-316.43421830184053,1745594385.315476
647,1,1,10,961,15,-4.09521484375,1.220703125,-0.4150390625,31.8603515625,-4.08935546875,-68.4814453125,114.75585097229393,-102.31034532209028,-298.3808607543852,1745594385.3221154
648,1,1,10,976,15,0.4541015625,0.43505859375,0.255859375,-16.78466796875,-126.03759765625,-76.66015625,116.25272471748981,-100.81347157689439,-314.9297718395526,1745594385.330368
649,1,1,10,991,15,0.64453125,0.7099609375,-0.0087890625,2.3193359375,-14.6484375,-18.24951171875,119.24647220788161,-100.81347157689439,-293.86752136752136,1745594385.3436215
650,1,1,11,6,15,0.04150390625,1.8271484375,-0.09326171875,0.732421875,27.83203125,-35.7666015625,114.75585097229393,-102.31034532209028,-305.9030930658249,1745594385.3516955
651,1,1,11,21,15,-0.20703125,1.27880859375,0.14306640625,2.86865234375,12.0849609375,-32.8369140625,114.75585097229393,-106.80096655767797,-308.9119859904008,1745594385.3653665
652,1,1,11,36,15,-0.02392578125,1.0341796875,0.20458984375,15.380859375,15.869140625,-26.0009765625,117.74959846268571,-102.31034532209028,-302.89420014124903,1745594385.3737733
653,1,1,11,51,15,-0.1513671875,0.91259765625,-0.01611328125,12.39013671875,14.34326171875,-24.23095703125,116.25272471748981,-118.77595651924511,-314.9297718395526,1745594385.3819966
654,1,1,11,66,15,-0.22802734375,1.04541015625,0.0712890625,12.6953125,-5.43212890625,-20.81298828125,116.25272471748981,-111.29158779326563,-296.87641429209725,1745594385.3900943
655,1,1,11,81,15,-0.05859375,1.04541015625,0.0078125,11.5966796875,-19.95849609375,-20.08056640625,125.23396718866519,-109.79471404806975,-302.89420014124903,1745594385.3984556
656,1,1,11,96,15,-0.0419921875,1.11669921875,-0.06396484375,12.02392578125,-18.00537109375,-20.81298828125,111.76210348190214,-108.29784030287387,-293.86752136752136,1745594385.4065967
657,1,1,11,111,15,-0.09521484375,1.060546875,-0.0625,8.72802734375,-16.11328125,-16.17431640625,114.75585097229393,-120.272830264441,-302.89420014124903,1745594385.42533
658,1,1,11,126,15,-0.10107421875,1.00244140625,-0.06689453125,6.34765625,-12.51220703125,-10.68115234375,129.72458842425286,-100.81347157689439,-301.38975367896103,1745594385.4320426
659,1,1,11,141,15,-0.083984375,1.00244140625,-0.05712890625,1.46484375,-16.05224609375,-9.21630859375,111.76210348190214,-118.77595651924511,-304.398646603537,1745594385.4385357
660,1,1,11,156,15,-0.0322265625,1.02490234375,-0.0068359375,-0.244140625,-18.06640625,-9.94873046875,128.22771467905696,-109.79471404806975,-305.9030930658249,1745594385.4449584
661,1,1,11,171,15,-0.0244140625,1.03173828125,-0.00732421875,-0.244140625,-15.19775390625,-13.18359375,126.73084093386106,-105.30409281248207,-301.38975367896103,1745594385.451403
662,1,1,11,186,15,-0.03369140625,1.03125,-0.0419921875,-0.48828125,-13.48876953125,-16.9677734375,135.71208340503642,-117.27908277404921,-305.9030930658249,1745594385.4629896
663,1,1,11,201,15,-0.0537109375,1.017578125,-0.0546875,-2.38037109375,-14.0380859375,-20.3857421875,125.23396718866519,-106.80096655767797,-295.3719678298093,1745594385.4700482
664,1,1,11,216,15,-0.02685546875,0.9990234375,-0.05908203125,-4.57763671875,-10.25390625,-24.5361328125,134.21520965984053,-118.77595651924511,-304.398646603537,1745594385.4768913
665,1,1,11,231,15,0.0078125,1.0,-0.08447265625,-6.591796875,-1.52587890625,-30.70068359375,129.72458842425286,-108.29784030287387,-293.86752136752136,1745594385.48333
666,1,1,11,246,15,0.0595703125,1.037109375,-0.087890625,-9.765625,3.41796875,-41.6259765625,111.76210348190214,-115.78220902885332,-296.87641429209725,1745594385.4898014
667,1,1,11,261,15,0.0927734375,1.1357421875,-0.07275390625,-14.6484375,9.6435546875,-55.17578125,120.74334595307748,-106.80096655767797,-295.3719678298093,1745594385.4962676
668,1,1,11,276,15,0.03662109375,1.328125,0.01416015625,-22.8271484375,13.427734375,-71.10595703125,129.72458842425286,-108.29784030287387,-307.40753952811286,1745594385.5026996
669,1,1,11,291,15,0.08251953125,1.3916015625,0.16845703125,-30.82275390625,10.92529296875,-89.7216796875,120.74334595307748,-120.272830264441,-295.3719678298093,1745594385.509196
670,1,1,11,306,15,0.14453125,1.43310546875,0.02490234375,-32.40966796875,7.50732421875,-107.60498046875,116.25272471748981,-126.26032524522458,-301.38975367896103,1745594385.5265214
671,1,1,11,321,15,0.28271484375,1.7490234375,-0.068359375,-36.865234375,7.14111328125,-132.32421875,108.76835599151035,-123.26657775483278,-314.9297718395526,1745594385.5334425
672,1,1,11,336,15,0.291015625,1.92333984375,-0.0849609375,-37.29248046875,17.4560546875,-147.94921875,116.25272471748981,-139.7321889519876,-307.40753952811286,1745594385.5413668
673,1,1,11,351,15,0.23193359375,1.81640625,-0.00927734375,-36.43798828125,19.1650390625,-159.0576171875,111.76210348190214,-139.7321889519876,-311.9208789149767,1745594385.5479279
674,1,1,11,366,15,0.17626953125,1.6044921875,-0.00341796875,-33.935546875,18.98193359375,-165.6494140625,116.25272471748981,-154.70092640394654,-304.398646603537,1745594385.5543523
675,1,1,11,381,15,-0.15478515625,1.3623046875,-0.10693359375,-31.3720703125,24.5361328125,-167.48046875,110.26522973670623,-153.20405265875064,-302.89420014124903,1745594385.5608177
676,1,1,11,396,15,-0.38720703125,1.11572265625,-0.21875,-25.08544921875,3.84521484375,-164.73388671875,99.787113520335,-160.6884213847301,-313.42532537726464,1745594385.5673292
677,1,1,11,411,15,-0.00830078125,0.95166015625,-0.20947265625,-19.287109375,-19.71435546875,-152.52685546875,98.2902397751391,-169.66966385590547,-301.38975367896103,1745594385.5737548
678,1,1,11,426,15,0.25732421875,0.63134765625,-0.21142578125,-12.26806640625,-33.203125,-123.291015625,95.29649228474732,-147.21655767796707,-311.9208789149767,1745594385.5802186
